t;w;x;y;z;ax;ay;az
1026;-0.76;0.02;-0.10;-0.64;-1597;649;8249
1045;-0.76;0.02;-0.10;-0.64;-1553;785;8292
1063;-0.76;0.02;-0.09;-0.64;-1523;932;8293
1080;-0.76;0.02;-0.09;-0.64;-1474;987;8282
1097;-0.76;0.02;-0.09;-0.64;-1447;941;8228
1114;-0.76;0.01;-0.09;-0.64;-1375;855;8147
1133;-0.76;0.01;-0.09;-0.64;-1248;778;8103
1150;-0.76;0.01;-0.08;-0.64;-1098;741;8113
1169;-0.76;0.01;-0.08;-0.64;-986;760;8119
1186;-0.76;0.01;-0.08;-0.64;-948;809;8094
1203;-0.76;0.01;-0.08;-0.64;-951;829;8041
1221;-0.76;0.01;-0.08;-0.64;-934;791;7971
1241;-0.76;0.01;-0.08;-0.64;-882;674;7905
1261;-0.76;0.01;-0.08;-0.64;-788;571;7840
1278;-0.76;0.01;-0.08;-0.64;-708;545;7815
1295;-0.76;0.01;-0.08;-0.64;-667;541;7867
1312;-0.76;0.01;-0.07;-0.64;-659;559;7906
1330;-0.76;0.01;-0.07;-0.64;-667;589;7919
1349;-0.76;0.00;-0.07;-0.64;-706;623;7909
1365;-0.76;0.00;-0.07;-0.64;-721;636;7849
1383;-0.76;0.00;-0.06;-0.64;-669;612;7810
1401;-0.76;0.00;-0.06;-0.64;-583;581;7861
1418;-0.76;-0.00;-0.06;-0.64;-562;562;7939
1435;-0.76;-0.00;-0.06;-0.64;-621;554;8015
1457;-0.76;-0.00;-0.06;-0.64;-668;581;8030
1476;-0.76;-0.00;-0.06;-0.64;-650;638;7982
1492;-0.76;-0.00;-0.06;-0.64;-583;665;7956
1509;-0.76;-0.00;-0.06;-0.64;-474;639;7946
1528;-0.76;-0.00;-0.06;-0.64;-367;577;7946
1546;-0.76;-0.00;-0.06;-0.64;-280;523;7923
1563;-0.76;-0.00;-0.06;-0.64;-225;492;7888
1586;-0.77;-0.00;-0.05;-0.64;-344;707;7906
1606;-0.77;-0.00;-0.05;-0.64;-326;740;7932
1624;-0.76;-0.01;-0.05;-0.64;-349;720;7914
1641;-0.76;-0.01;-0.05;-0.64;-392;650;7902
1661;-0.76;-0.01;-0.05;-0.64;-407;583;7882
1680;-0.76;-0.01;-0.05;-0.64;-376;550;7861
1698;-0.76;-0.01;-0.05;-0.64;-315;550;7839
1714;-0.76;-0.01;-0.05;-0.64;-288;584;7837
1732;-0.76;-0.01;-0.05;-0.64;-305;647;7851
1750;-0.76;-0.01;-0.05;-0.64;-341;674;7890
1769;-0.76;-0.01;-0.05;-0.64;-389;655;7919
1785;-0.76;-0.01;-0.05;-0.64;-389;580;7902
1802;-0.76;-0.01;-0.05;-0.64;-331;503;7888
1821;-0.76;-0.00;-0.05;-0.64;-294;500;7853
1838;-0.76;-0.00;-0.05;-0.64;-284;550;7808
1855;-0.76;-0.00;-0.05;-0.64;-297;646;7795
1877;-0.76;-0.01;-0.05;-0.64;-351;708;7817
1896;-0.76;-0.01;-0.05;-0.64;-432;700;7832
1915;-0.76;-0.01;-0.05;-0.64;-503;639;7847
1943;-0.76;-0.01;-0.05;-0.64;-514;541;7843
1959;-0.77;-0.00;-0.05;-0.64;-468;450;7834
1976;-0.77;-0.00;-0.05;-0.64;-411;424;7812
1995;-0.77;-0.00;-0.05;-0.64;-335;440;7771
2012;-0.77;-0.00;-0.05;-0.64;-304;454;7756
2030;-0.77;-0.00;-0.05;-0.64;-438;555;8085
2048;-0.77;-0.00;-0.05;-0.64;-564;612;8150
2066;-0.76;-0.00;-0.04;-0.64;-621;661;8089
2084;-0.76;-0.00;-0.04;-0.64;-585;681;8046
2104;-0.77;-0.00;-0.04;-0.64;-520;598;8021
2126;-0.77;-0.00;-0.02;-0.64;-12;127;7865
2145;-0.77;-0.00;-0.02;-0.64;-45;129;7852
2163;-0.77;-0.00;-0.02;-0.64;-80;153;7835
2179;-0.77;-0.00;-0.01;-0.64;-73;147;7826
2197;-0.77;-0.00;-0.01;-0.64;-45;133;7827
2216;-0.77;-0.00;-0.01;-0.64;7;108;7832
2234;-0.77;-0.00;-0.01;-0.64;21;125;7855
2250;-0.77;-0.00;-0.01;-0.64;13;139;7874
2268;-0.77;0.00;-0.01;-0.64;19;116;7882
2287;-0.77;0.00;-0.01;-0.64;15;101;7879
2304;-0.77;0.00;-0.01;-0.64;12;94;7864
2324;-0.77;0.00;-0.01;-0.64;1;103;7849
2343;-0.77;0.00;-0.01;-0.64;-6;69;7875
2362;-0.77;0.00;-0.01;-0.64;57;113;7887
2378;-0.77;0.00;-0.01;-0.64;54;109;7880
2394;-0.77;0.00;-0.00;-0.64;30;49;7867
2414;-0.77;0.00;-0.00;-0.64;21;7;7852
2432;-0.77;0.00;-0.00;-0.64;21;1;7842
2449;-0.77;0.00;-0.00;-0.64;27;30;7840
2465;-0.77;0.00;-0.00;-0.64;14;40;7845
2484;-0.77;-0.00;-0.00;-0.64;20;58;7850
2503;-0.77;-0.00;-0.00;-0.64;39;68;7859
2519;-0.77;-0.00;-0.00;-0.64;57;24;7872
2540;-0.77;-0.00;-0.00;-0.64;58;1;7868
2558;-0.77;-0.00;-0.00;-0.64;42;6;7864
2576;-0.77;-0.00;-0.00;-0.64;61;17;7866
2592;-0.77;-0.00;-0.00;-0.64;105;46;7864
2610;-0.77;-0.00;-0.00;-0.64;134;53;7859
2630;-0.77;-0.00;-0.00;-0.64;143;51;7860
2647;-0.77;-0.00;-0.00;-0.64;141;19;7854
2664;-0.77;0.00;-0.00;-0.64;140;-23;7849
2686;-0.77;-0.00;0.00;-0.64;140;17;7864
2705;-0.77;-0.00;0.00;-0.64;143;9;7859
2722;-0.77;-0.00;0.00;-0.64;141;62;7854
2738;-0.77;-0.00;0.00;-0.64;145;53;7859
2757;-0.77;-0.00;0.00;-0.64;144;33;7865
2778;-0.77;-0.00;0.00;-0.64;145;45;7864
2796;-0.77;-0.00;0.00;-0.64;139;39;7871
2814;-0.77;-0.00;0.00;-0.64;139;19;7865
2832;-0.77;-0.00;0.00;-0.64;138;30;7862
2849;-0.77;-0.00;0.00;-0.64;138;37;7858
2866;-0.77;-0.00;0.00;-0.64;137;30;7863
2886;-0.77;-0.00;0.00;-0.64;139;30;7869
2904;-0.77;-0.00;0.00;-0.64;143;39;7874
2928;-0.77;-0.00;0.00;-0.64;144;33;7864
2944;-0.77;-0.00;0.00;-0.64;143;32;7856
2963;-0.77;-0.00;0.00;-0.64;143;41;7862
2980;-0.77;-0.00;0.00;-0.64;143;35;7859
3000;-0.77;-0.00;0.00;-0.64;145;35;7857
3020;-0.77;-0.00;0.00;-0.64;144;37;7859
3037;-0.77;-0.00;0.00;-0.64;141;39;7853
3054;-0.77;-0.00;0.00;-0.64;137;33;7852
3071;-0.77;-0.00;0.00;-0.64;138;35;7855
3091;-0.77;-0.00;0.00;-0.64;139;33;7854
3108;-0.77;-0.00;0.00;-0.64;133;32;7853
3124;-0.77;-0.00;0.00;-0.64;134;36;7846
3143;-0.77;-0.00;0.00;-0.64;133;36;7843
3161;-0.77;-0.00;0.00;-0.64;134;34;7843
3179;-0.77;-0.00;0.00;-0.64;138;35;7846
3195;-0.77;-0.00;0.00;-0.64;139;40;7848
3213;-0.77;-0.00;0.00;-0.64;141;41;7848
3245;-0.77;-0.01;0.00;-0.64;143;35;7857
3262;-0.77;-0.01;0.00;-0.64;142;35;7858
3278;-0.77;-0.01;0.00;-0.64;137;37;7865
3297;-0.77;-0.01;0.00;-0.64;139;36;7871
3316;-0.77;-0.01;0.00;-0.64;140;31;7864
3333;-0.77;-0.01;0.00;-0.64;143;32;7856
3350;-0.77;-0.01;0.00;-0.64;143;28;7857
3368;-0.77;-0.01;0.00;-0.64;141;25;7858
3388;-0.77;-0.01;0.00;-0.64;141;30;7861
3404;-0.77;-0.01;0.00;-0.64;144;31;7857
3420;-0.77;-0.01;0.00;-0.64;141;29;7857
3440;-0.77;-0.01;0.00;-0.64;140;31;7860
3461;-0.77;-0.01;0.00;-0.64;138;37;7860
3478;-0.77;-0.01;0.00;-0.64;131;32;7858
3495;-0.77;-0.01;0.00;-0.64;126;31;7854
3515;-0.77;-0.01;0.00;-0.64;123;33;7859
3532;-0.77;-0.01;0.00;-0.64;125;32;7854
3548;-0.77;-0.01;0.00;-0.64;123;29;7846
3566;-0.77;-0.01;0.00;-0.64;129;31;7850
3585;-0.77;-0.01;0.00;-0.64;136;35;7851
3603;-0.77;-0.01;0.00;-0.64;136;38;7853
3619;-0.77;-0.01;0.00;-0.64;133;36;7854
3636;-0.77;-0.01;0.00;-0.64;130;33;7850
3656;-0.77;-0.01;0.00;-0.64;129;33;7854
3673;-0.77;-0.01;0.00;-0.64;129;32;7857
3694;-0.77;-0.01;0.00;-0.64;130;26;7861
3711;-0.77;-0.01;0.00;-0.64;128;25;7863
3729;-0.77;-0.01;0.00;-0.64;134;24;7863
3746;-0.77;-0.01;0.00;-0.64;130;26;7858
3764;-0.77;-0.01;0.00;-0.64;131;26;7854
3781;-0.77;-0.01;0.00;-0.64;132;23;7855
3805;-0.77;-0.01;0.00;-0.64;132;32;7858
3824;-0.77;-0.01;0.00;-0.64;135;32;7857
3841;-0.77;-0.01;0.00;-0.64;133;30;7851
4865;-0.77;-0.01;0.00;-0.64;133;28;7858
4884;-0.77;-0.01;0.00;-0.64;139;30;7854
4918;-0.77;-0.01;0.00;-0.64;137;31;7858
4937;-0.77;-0.01;0.00;-0.64;138;30;7841
4953;-0.77;-0.01;0.00;-0.64;145;31;7842
4973;-0.77;-0.01;0.00;-0.64;136;30;7854
4991;-0.77;-0.01;0.00;-0.64;137;27;7858
5008;-0.77;-0.01;0.00;-0.64;140;30;7863
5024;-0.77;-0.01;0.00;-0.64;145;27;7863
5043;-0.77;-0.01;0.00;-0.64;139;32;7864
5062;-0.77;-0.01;0.00;-0.64;139;29;7861
5078;-0.77;-0.01;0.00;-0.64;139;32;7860
5095;-0.77;-0.01;0.00;-0.64;134;36;7860
5114;-0.77;-0.01;0.00;-0.64;133;34;7858
5132;-0.77;-0.01;0.00;-0.64;134;36;7856
5149;-0.77;-0.01;0.00;-0.64;133;38;7860
5169;-0.77;-0.01;0.00;-0.64;136;36;7858
5188;-0.77;-0.01;0.00;-0.64;137;39;7860
5205;-0.77;-0.01;0.00;-0.64;140;40;7861
5222;-0.77;-0.01;0.00;-0.64;138;35;7859
5239;-0.77;-0.01;0.00;-0.64;141;25;7855
5258;-0.77;-0.01;0.00;-0.64;142;31;7852
5276;-0.77;-0.01;0.00;-0.64;148;33;7852
5292;-0.77;-0.01;0.00;-0.64;144;34;7855
5310;-0.77;-0.01;0.00;-0.64;140;29;7852
5329;-0.77;-0.01;0.00;-0.64;136;25;7853
5355;-0.77;-0.01;0.00;-0.64;146;33;7866
5371;-0.77;-0.01;0.00;-0.64;145;32;7863
5393;-0.77;-0.01;0.00;-0.64;140;35;7855
5410;-0.77;-0.01;0.00;-0.64;142;35;7859
5428;-0.77;-0.01;0.00;-0.64;141;37;7864
5446;-0.77;-0.01;0.00;-0.64;143;35;7864
5463;-0.77;-0.01;0.00;-0.64;141;32;7857
5481;-0.77;-0.01;0.00;-0.64;138;33;7861
5498;-0.77;-0.01;0.00;-0.64;138;36;7859
5516;-0.77;-0.01;0.00;-0.64;140;33;7853
5534;-0.77;-0.01;0.00;-0.64;139;35;7851
5551;-0.77;-0.01;0.00;-0.64;138;37;7849
5569;-0.77;-0.01;0.00;-0.64;137;37;7849
5586;-0.77;-0.01;0.00;-0.64;139;33;7851
5604;-0.77;-0.01;0.00;-0.64;137;29;7853
5624;-0.77;-0.01;0.00;-0.64;133;27;7856
5643;-0.77;-0.01;0.00;-0.64;136;23;7858
5661;-0.77;-0.01;0.00;-0.64;139;18;7852
5677;-0.77;-0.01;0.00;-0.64;139;18;7847
5695;-0.77;-0.01;0.00;-0.64;137;18;7857
5713;-0.77;-0.01;0.00;-0.64;136;23;7862
5730;-0.77;-0.01;0.00;-0.64;139;28;7861
5747;-0.77;-0.01;0.00;-0.64;140;29;7852
5765;-0.77;-0.01;0.00;-0.64;143;24;7854
5784;-0.77;-0.01;0.00;-0.64;147;27;7859
5801;-0.77;-0.01;0.00;-0.64;151;29;7862
5818;-0.77;-0.01;0.00;-0.64;146;31;7859
5839;-0.77;-0.01;0.00;-0.64;141;35;7859
5857;-0.77;-0.01;0.00;-0.64;140;36;7866
5874;-0.77;-0.01;0.00;-0.64;141;39;7861
5890;-0.77;-0.01;0.00;-0.64;141;39;7857
5915;-0.77;-0.01;0.01;-0.64;148;29;7857
5933;-0.77;-0.01;0.01;-0.64;148;25;7862
5950;-0.77;-0.01;0.01;-0.64;139;24;7860
5966;-0.77;-0.01;0.01;-0.64;133;18;7856
5984;-0.77;-0.01;0.01;-0.64;132;18;7851
6004;-0.77;-0.01;0.01;-0.64;134;20;7849
6019;-0.77;-0.01;0.01;-0.64;116;25;7868
6036;-0.77;-0.01;0.01;-0.64;127;21;7878
6055;-0.77;-0.01;0.01;-0.64;129;22;7877
6077;-0.77;-0.01;0.01;-0.64;129;28;7870
6094;-0.77;-0.01;0.01;-0.64;133;27;7870
6113;-0.77;-0.01;0.01;-0.64;136;29;7866
6138;-0.77;-0.01;0.01;-0.64;136;33;7863
6154;-0.77;-0.01;0.01;-0.64;138;27;7861
6171;-0.77;-0.01;0.01;-0.64;133;29;7861
6188;-0.77;-0.01;0.01;-0.64;132;33;7856
6207;-0.77;-0.01;0.01;-0.64;131;27;7854
6224;-0.77;-0.01;0.01;-0.64;130;27;7854
6240;-0.77;-0.01;0.01;-0.64;127;29;7852
6259;-0.77;-0.01;0.01;-0.64;128;27;7854
6277;-0.77;-0.01;0.01;-0.64;133;26;7858
6298;-0.77;-0.01;0.01;-0.64;135;25;7853
6315;-0.77;-0.01;0.01;-0.64;136;24;7849
6333;-0.77;-0.01;0.01;-0.64;136;24;7852
6350;-0.77;-0.01;0.01;-0.64;134;25;7851
6367;-0.77;-0.01;0.01;-0.64;135;19;7855
6386;-0.77;-0.01;0.01;-0.64;137;18;7857
6402;-0.77;-0.01;0.01;-0.64;133;20;7852
6421;-0.77;-0.01;0.01;-0.64;136;20;7841
6438;-0.77;-0.01;0.01;-0.64;138;22;7844
6464;-0.77;-0.01;0.01;-0.64;137;25;7859
6481;-0.77;-0.01;0.01;-0.64;132;24;7862
6498;-0.77;-0.01;0.01;-0.64;132;23;7861
6516;-0.77;-0.01;0.01;-0.64;135;24;7861
6538;-0.77;-0.01;0.01;-0.64;134;30;7863
6554;-0.77;-0.01;0.01;-0.64;140;31;7866
6572;-0.77;-0.01;0.01;-0.64;143;30;7865
6591;-0.77;-0.01;0.01;-0.64;144;29;7866
6608;-0.77;-0.01;0.01;-0.64;139;27;7860
6624;-0.77;-0.01;0.01;-0.64;140;31;7860
6643;-0.77;-0.01;0.01;-0.64;143;30;7859
6661;-0.77;-0.01;0.01;-0.64;139;29;7856
6679;-0.77;-0.01;0.01;-0.64;138;24;7860
6695;-0.77;-0.01;0.01;-0.64;138;20;7858
6712;-0.77;-0.01;0.01;-0.64;135;20;7859
6732;-0.77;-0.01;0.01;-0.64;133;22;7857
6752;-0.77;-0.01;0.01;-0.64;132;19;7861
6769;-0.77;-0.01;0.01;-0.64;136;21;7864
6787;-0.77;-0.01;0.01;-0.64;137;20;7865
6807;-0.77;-0.01;0.01;-0.64;137;14;7862
6824;-0.77;-0.01;0.01;-0.64;136;14;7863
6842;-0.77;-0.01;0.01;-0.64;139;14;7861
6876;-0.77;-0.01;0.01;-0.64;138;21;7863
6894;-0.77;-0.01;0.01;-0.64;140;24;7861
6910;-0.77;-0.01;0.01;-0.64;143;28;7857
6927;-0.77;-0.01;0.01;-0.64;142;29;7856
6945;-0.77;-0.01;0.01;-0.64;137;25;7857
6964;-0.77;-0.01;0.01;-0.64;137;22;7854
6981;-0.77;-0.01;0.01;-0.64;139;21;7853
7004;-0.77;-0.01;0.01;-0.64;140;23;7860
7024;-0.77;-0.01;0.01;-0.64;141;29;7862
7041;-0.77;-0.01;0.01;-0.64;136;30;7860
7058;-0.77;-0.01;0.01;-0.64;137;28;7863
7075;-0.77;-0.01;0.01;-0.64;136;29;7863
7093;-0.77;-0.01;0.01;-0.64;136;27;7862
7112;-0.77;-0.01;0.01;-0.64;138;23;7860
7128;-0.77;-0.01;0.01;-0.64;136;22;7857
7146;-0.77;-0.01;0.01;-0.64;134;21;7855
7164;-0.77;-0.01;0.01;-0.64;133;25;7860
7181;-0.77;-0.01;0.01;-0.64;137;27;7864
7198;-0.77;-0.01;0.01;-0.64;136;25;7859
7220;-0.77;-0.01;0.01;-0.64;136;24;7857
7238;-0.77;-0.01;0.01;-0.64;134;25;7854
7255;-0.77;-0.01;0.01;-0.64;131;21;7860
7273;-0.77;-0.01;0.01;-0.64;127;19;7857
7291;-0.77;-0.01;0.01;-0.64;132;21;7859
7308;-0.77;-0.01;0.01;-0.64;134;19;7859
7326;-0.77;-0.01;0.01;-0.64;138;24;7860
7343;-0.77;-0.01;0.01;-0.64;135;25;7858
7361;-0.77;-0.01;0.01;-0.64;135;26;7857
7379;-0.77;-0.01;0.01;-0.64;137;28;7853
7397;-0.77;-0.01;0.01;-0.64;137;25;7853
7414;-0.77;-0.01;0.01;-0.64;138;24;7848
7431;-0.77;-0.01;0.01;-0.64;138;24;7843
7452;-0.77;-0.01;0.01;-0.64;138;23;7849
7471;-0.77;-0.01;0.01;-0.64;137;21;7859
7489;-0.77;-0.01;0.01;-0.64;136;25;7862
7505;-0.77;-0.01;0.01;-0.64;138;27;7866
7522;-0.77;-0.01;0.01;-0.64;134;30;7857
7542;-0.77;-0.01;0.01;-0.64;139;29;7859
7563;-0.77;-0.01;0.01;-0.64;134;24;7856
7580;-0.77;-0.01;0.01;-0.64;134;24;7856
7598;-0.77;-0.01;0.01;-0.64;130;25;7857
7617;-0.77;-0.01;0.01;-0.64;135;26;7860
7634;-0.77;-0.01;0.01;-0.64;140;24;7857
7650;-0.77;-0.01;0.01;-0.64;137;23;7857
7673;-0.77;-0.01;0.01;-0.64;137;24;7857
7691;-0.77;-0.01;0.01;-0.64;139;20;7858
8713;-0.77;-0.01;0.01;-0.64;138;28;7856
8730;-0.77;-0.01;0.01;-0.64;135;25;7859
8749;-0.77;-0.01;0.01;-0.64;137;31;7861
8768;-0.77;-0.01;0.01;-0.64;137;31;7858
8784;-0.77;-0.01;0.01;-0.64;137;30;7864
8800;-0.77;-0.01;0.01;-0.64;134;28;7863
8820;-0.77;-0.01;0.01;-0.64;131;25;7861
8838;-0.77;-0.01;0.01;-0.64;135;22;7861
8855;-0.77;-0.01;0.01;-0.64;140;21;7858
8871;-0.77;-0.01;0.01;-0.64;139;25;7854
8890;-0.77;-0.01;0.01;-0.64;138;25;7858
8911;-0.77;-0.01;0.01;-0.64;142;23;7856
8927;-0.77;-0.01;0.01;-0.64;135;22;7861
8946;-0.77;-0.01;0.01;-0.64;139;18;7861
8964;-0.77;-0.01;0.01;-0.64;135;21;7857
8982;-0.77;-0.01;0.01;-0.64;137;23;7858
8998;-0.77;-0.01;0.01;-0.64;129;24;7853
9016;-0.77;-0.01;0.01;-0.64;129;25;7852
9035;-0.77;-0.01;0.01;-0.64;135;23;7854
9052;-0.77;-0.01;0.01;-0.64;137;28;7854
9069;-0.77;-0.01;0.01;-0.64;136;31;7851
9087;-0.77;-0.01;0.01;-0.64;135;34;7852
9106;-0.77;-0.01;0.01;-0.64;135;32;7857
9133;-0.77;-0.01;0.01;-0.64;141;33;7853
9151;-0.77;-0.01;0.01;-0.64;140;35;7859
9168;-0.77;-0.01;0.01;-0.64;140;33;7859
9185;-0.77;-0.01;0.01;-0.64;142;37;7865
9203;-0.77;-0.01;0.01;-0.64;141;37;7863
9221;-0.77;-0.01;0.01;-0.64;138;32;7865
9239;-0.77;-0.01;0.01;-0.64;136;30;7863
9256;-0.77;-0.01;0.01;-0.64;134;31;7862
9274;-0.77;-0.01;0.01;-0.64;131;25;7863
9293;-0.77;-0.01;0.01;-0.64;134;21;7861
9311;-0.77;-0.01;0.01;-0.64;139;20;7859
9333;-0.77;-0.01;0.01;-0.64;139;23;7856
9349;-0.77;-0.01;0.01;-0.64;140;24;7861
9371;-0.77;-0.01;0.01;-0.64;144;25;7867
9387;-0.77;-0.01;0.01;-0.64;140;31;7868
9406;-0.77;-0.01;0.01;-0.64;136;31;7867
9424;-0.77;-0.01;0.01;-0.64;138;29;7868
9441;-0.77;-0.01;0.01;-0.64;141;29;7864
9458;-0.77;-0.01;0.01;-0.64;144;32;7861
9475;-0.77;-0.01;0.01;-0.64;142;29;7861
9494;-0.77;-0.01;0.01;-0.64;143;32;7867
9512;-0.77;-0.01;0.01;-0.64;145;34;7868
9527;-0.77;-0.01;0.01;-0.64;148;28;7866
9546;-0.77;-0.01;0.01;-0.64;145;23;7869
9564;-0.77;-0.01;0.01;-0.64;143;23;7873
9585;-0.77;-0.01;0.01;-0.64;143;26;7873
9601;-0.77;-0.01;0.01;-0.64;140;24;7873
9620;-0.77;-0.01;0.01;-0.64;141;26;7873
9638;-0.77;-0.01;0.01;-0.64;142;24;7874
9654;-0.77;-0.01;0.01;-0.64;148;24;7869
9671;-0.77;-0.01;0.01;-0.64;5382;-17342;27342
9693;-0.77;-0.01;0.01;-0.64;138;26;7870
9712;-0.77;-0.01;0.01;-0.64;141;27;7874
9728;-0.77;-0.01;0.01;-0.64;138;30;7870
9745;-0.77;-0.01;0.01;-0.64;135;31;7868
9763;-0.77;-0.01;0.01;-0.64;137;34;7867
9782;-0.77;-0.01;0.01;-0.64;134;31;7869
9804;-0.77;-0.01;0.01;-0.64;136;36;7867
9834;-0.77;-0.01;0.01;-0.64;141;37;7861
9851;-0.77;-0.01;0.01;-0.64;140;31;7861
9868;-0.77;-0.01;0.01;-0.64;141;31;7859
9887;-0.77;-0.01;0.01;-0.64;142;33;7865
9904;-0.77;-0.01;0.01;-0.64;141;33;7863
9922;-0.77;-0.01;0.01;-0.64;142;33;7864
9939;-0.77;-0.01;0.01;-0.64;139;37;7871
9957;-0.77;-0.01;0.01;-0.64;139;34;7868
9975;-0.77;-0.01;0.01;-0.64;140;30;7870
9992;-0.77;-0.01;0.01;-0.64;137;29;7874
10010;-0.77;-0.01;0.01;-0.64;133;32;7871
10027;-0.77;-0.01;0.01;-0.64;140;33;7870
10048;-0.77;-0.01;0.01;-0.64;141;34;7870
10065;-0.77;-0.01;0.01;-0.64;141;32;7864
10085;-0.77;-0.01;0.01;-0.64;138;29;7874
10102;-0.77;-0.01;0.01;-0.64;142;32;7867
10118;-0.77;-0.01;0.01;-0.64;139;31;7859
10136;-0.77;-0.01;0.01;-0.64;139;31;7858
10155;-0.77;-0.01;0.01;-0.64;137;31;7859
10173;-0.77;-0.01;0.01;-0.64;138;34;7861
10189;-0.77;-0.01;0.01;-0.64;141;32;7863
10206;-0.77;-0.01;0.01;-0.64;137;32;7863
10233;-0.77;-0.01;0.01;-0.64;143;31;7867
10250;-0.77;-0.01;0.01;-0.64;140;35;7869
10269;-0.77;-0.01;0.01;-0.64;140;32;7879
10288;-0.77;-0.01;0.01;-0.64;142;29;7873
10308;-0.77;-0.01;0.01;-0.64;144;23;7864
10324;-0.77;-0.01;0.01;-0.64;142;22;7866
10341;-0.77;-0.01;0.01;-0.64;136;19;7862
10359;-0.77;-0.01;0.01;-0.64;139;18;7865
10377;-0.77;-0.01;0.01;-0.64;140;19;7861
10394;-0.77;-0.01;0.01;-0.64;138;19;7858
10410;-0.77;-0.01;0.01;-0.64;135;20;7860
10430;-0.77;-0.01;0.01;-0.64;134;22;7863
10448;-0.77;-0.01;0.01;-0.64;133;20;7865
10464;-0.77;-0.01;0.01;-0.64;131;16;7871
10485;-0.77;-0.01;0.01;-0.64;135;19;7866
10504;-0.77;-0.01;0.01;-0.64;136;20;7861
10522;-0.77;-0.01;0.01;-0.64;133;24;7863
10538;-0.77;-0.01;0.01;-0.64;132;25;7857
10556;-0.77;-0.01;0.01;-0.64;130;28;7854
10575;-0.77;-0.01;0.01;-0.64;131;29;7853
10592;-0.77;-0.01;0.01;-0.64;138;30;7863
10609;-0.77;-0.01;0.01;-0.64;140;26;7863
10626;-0.77;-0.01;0.01;-0.64;137;24;7866
10645;-0.77;-0.01;0.01;-0.64;139;25;7865
10663;-0.77;-0.01;0.01;-0.64;142;24;7865
10679;-0.77;-0.01;0.01;-0.64;142;25;7866
10701;-0.77;-0.01;0.01;-0.64;141;24;7871
10718;-0.77;-0.01;0.01;-0.64;136;24;7862
10736;-0.77;-0.01;0.01;-0.64;136;26;7861
10754;-0.77;-0.01;0.01;-0.64;135;25;7861
10772;-0.77;-0.66;-1.87;0.41;11264;29142;27391
10792;-0.77;-0.01;0.01;-0.64;138;27;7852
10811;-0.77;-0.01;0.01;-0.64;145;28;7848
10828;-0.77;-0.01;0.01;-0.64;140;30;7853
10845;-0.77;-0.01;0.01;-0.64;137;25;7855
10863;-0.77;-0.01;0.01;-0.64;136;27;7853
10880;-0.77;-0.01;0.01;-0.64;135;27;7854
10899;-0.77;-0.01;0.01;-0.64;132;26;7859
10919;-0.77;-0.01;0.01;-0.64;133;25;7860
10936;-0.77;-0.01;0.01;-0.64;138;26;7860
10955;-0.77;-0.01;0.01;-0.64;138;24;7859
10972;-0.77;-0.01;0.01;-0.64;138;22;7858
10989;-0.77;-0.01;0.01;-0.64;139;24;7861
11007;-0.77;-0.01;0.01;-0.64;137;27;7865
11026;-0.77;-0.01;0.01;-0.64;134;30;7862
11043;-0.77;-0.01;0.01;-0.64;131;32;7861
11059;-0.77;-0.01;0.01;-0.64;133;32;7859
11077;-0.77;-0.01;0.01;-0.64;133;32;7857
11096;-0.77;-0.01;0.01;-0.64;132;33;7855
11114;-0.77;-0.01;0.01;-0.64;130;31;7860
11130;-0.77;-0.01;0.01;-0.64;132;31;7863
11152;-0.77;-0.01;0.01;-0.64;133;34;7856
11170;-0.77;-0.01;0.01;-0.64;134;32;7850
11186;-0.77;-0.01;0.01;-0.64;132;31;7850
11203;-0.77;-0.01;0.01;-0.64;130;30;7853
11222;-0.77;-0.01;0.01;-0.64;136;30;7855
11241;-0.77;-0.01;0.01;-0.64;140;31;7860
11258;-0.77;-0.01;0.01;-0.64;145;32;7864
11273;-0.77;-0.01;0.01;-0.64;143;31;7864
11293;-0.77;-0.01;0.01;-0.64;143;28;7870
11312;-0.77;-0.01;0.01;-0.64;143;29;7873
11329;-0.77;-0.01;0.01;-0.64;141;27;7868
11352;-0.77;-0.01;0.01;-0.64;145;27;7859
11376;-0.77;-0.01;0.01;-0.64;144;28;7864
11393;-0.77;-0.01;0.01;-0.64;145;28;7864
11410;-0.77;-0.01;0.01;-0.64;144;23;7859
11428;-0.77;-0.01;0.01;-0.64;141;26;7866
11446;-0.77;-0.01;0.01;-0.64;139;27;7864
11464;-0.77;-0.01;0.01;-0.64;137;30;7861
11482;-0.77;-0.01;0.01;-0.64;137;28;7858
11501;-0.77;-0.01;0.01;-0.64;134;27;7865
11526;-0.77;-0.01;0.01;-0.64;130;28;7864
12551;-0.77;-0.01;0.01;-0.64;143;26;7855
12568;-0.77;-0.01;0.01;-0.64;142;27;7860
12586;-0.77;-0.01;0.01;-0.64;141;26;7859
12608;-0.77;-0.01;0.01;-0.64;143;26;7862
12625;-0.77;-0.01;0.01;-0.64;140;30;7859
12644;-0.77;-0.01;0.01;-0.64;137;33;7859
12661;-0.77;-0.01;0.01;-0.64;139;35;7857
12679;-0.77;-0.01;0.01;-0.64;140;36;7851
12697;-0.77;-0.01;0.01;-0.64;143;31;7854
12714;-0.77;-0.01;0.01;-0.64;140;32;7854
12732;-0.77;-0.01;0.01;-0.64;139;31;7856
12751;-0.77;-0.01;0.01;-0.64;140;35;7855
12769;-0.77;-0.01;0.01;-0.64;141;35;7854
12800;-0.77;-0.01;0.01;-0.64;145;34;7846
12817;-0.77;-0.01;0.01;-0.64;148;32;7853
12839;-0.77;-0.01;0.01;-0.64;144;31;7859
12858;-0.77;-0.01;0.01;-0.64;144;33;7863
12882;-0.77;-0.01;0.01;-0.64;144;33;7848
12898;-0.77;-0.01;0.01;-0.64;142;34;7852
12918;-0.77;-0.01;0.01;-0.64;139;29;7852
12936;-0.77;-0.01;0.01;-0.64;136;30;7859
12953;-0.77;-0.01;0.01;-0.64;139;30;7867
12969;-0.77;-0.01;0.01;-0.64;140;34;7866
12989;-0.77;-0.01;0.01;-0.64;139;36;7860
13007;-0.77;-0.01;0.01;-0.64;139;34;7854
13023;-0.77;-0.01;0.01;-0.64;140;34;7856
13040;-0.77;-0.01;0.01;-0.64;141;31;7855
13063;-0.77;-0.01;0.01;-0.64;138;30;7855
13081;-0.77;-0.01;0.01;-0.64;139;31;7858
13097;-0.77;-0.01;0.01;-0.64;139;31;7856
13116;-0.77;-0.01;0.01;-0.64;138;31;7862
13134;-0.77;-0.01;0.01;-0.64;136;32;7864
13151;-0.77;-0.01;0.01;-0.64;135;28;7858
13168;-0.77;-0.01;0.01;-0.64;135;28;7857
13186;-0.77;-0.01;0.01;-0.64;131;30;7864
13205;-0.77;-0.01;0.01;-0.64;133;32;7860
13223;-0.77;-0.01;0.01;-0.64;139;29;7860
13239;-0.77;-0.01;0.01;-0.64;142;36;7866
13257;-0.77;-0.01;0.01;-0.64;143;32;7866
13276;-0.77;-0.01;0.01;-0.64;139;30;7867
13297;-0.77;-0.01;0.01;-0.64;138;34;7866
13314;-0.77;-0.01;0.01;-0.64;139;31;7864
13332;-0.77;-0.01;0.01;-0.64;138;29;7861
13350;-0.77;-0.01;0.01;-0.64;139;26;7860
13367;-0.77;-0.01;0.01;-0.64;141;26;7860
13385;-0.77;-0.01;0.01;-0.64;143;24;7861
13403;-0.77;-0.01;0.01;-0.64;145;26;7860
13431;-0.77;-0.01;0.01;-0.64;140;28;7867
13448;-0.77;-0.01;0.01;-0.64;139;23;7873
13467;-0.77;-0.01;0.01;-0.64;141;23;7870
13484;-0.77;-0.01;0.01;-0.64;140;19;7870
13502;-0.77;-0.01;0.01;-0.64;138;19;7876
13524;-0.77;-0.01;0.01;-0.64;138;19;7873
13542;-0.77;-0.01;0.01;-0.64;138;21;7865
13558;-0.77;-0.01;0.01;-0.64;140;22;7861
13576;-0.77;-0.01;0.01;-0.64;132;26;7866
13595;-0.77;-0.01;0.01;-0.64;134;24;7866
13612;-0.77;-0.01;0.01;-0.64;137;24;7864
13630;-0.77;-0.01;0.01;-0.64;137;29;7859
13647;-0.77;-0.01;0.01;-0.64;133;30;7855
13666;-0.77;-0.01;0.01;-0.64;131;30;7856
13684;-0.77;-0.01;0.01;-0.64;134;33;7853
13700;-0.77;-0.01;0.01;-0.64;135;30;7852
13718;-0.77;-0.01;0.01;-0.64;136;29;7855
13741;-0.77;-0.01;0.01;-0.64;134;28;7851
13758;-0.77;-0.01;0.01;-0.64;133;27;7849
13774;-0.77;-0.01;0.01;-0.64;137;24;7852
13792;-0.77;-0.01;0.01;-0.64;137;23;7860
13812;-0.77;-0.01;0.01;-0.64;137;22;7863
13828;-0.77;-0.01;0.01;-0.64;134;27;7874
13845;-0.77;-0.01;0.01;-0.64;133;26;7874
13864;-0.77;-0.01;0.01;-0.64;133;22;7870
13883;-0.77;-0.01;0.01;-0.64;133;24;7876
13899;-0.77;-0.01;0.01;-0.64;134;21;7877
13915;-0.77;-0.01;0.01;-0.64;135;18;7873
13935;-0.77;-0.01;0.01;-0.64;133;21;7865
13956;-0.77;-0.01;0.01;-0.64;135;21;7863
13981;-0.77;-0.01;0.01;-0.64;151;28;7866
13998;-0.77;-0.01;0.01;-0.64;144;27;7865
14018;-0.77;-0.01;0.01;-0.64;137;28;7861
14035;-0.77;-0.01;0.01;-0.64;137;28;7860
14052;-0.77;-0.01;0.01;-0.64;138;31;7857
14069;-0.77;-0.01;0.01;-0.64;141;30;7857
14088;-0.77;-0.01;0.01;-0.64;143;31;7856
14106;-0.77;-0.01;0.01;-0.64;141;30;7860
14122;-0.77;-0.01;0.01;-0.64;136;33;7859
14140;-0.77;-0.01;0.01;-0.64;137;34;7853
14158;-0.77;-0.01;0.01;-0.64;139;35;7857
14178;-0.77;-0.01;0.01;-0.64;142;30;7863
14197;-0.77;-0.01;0.01;-0.64;141;25;7868
14214;-0.77;-0.01;0.01;-0.64;140;30;7867
14232;-0.77;-0.01;0.01;-0.64;139;36;7867
14249;-0.77;-0.01;0.01;-0.64;141;32;7863
14267;-0.77;-0.01;0.01;-0.64;144;30;7860
14285;-0.77;-0.01;0.01;-0.64;146;31;7859
14302;-0.77;-0.01;0.01;-0.64;148;26;7859
14320;-0.77;-0.01;0.01;-0.64;145;27;7860
14337;-0.77;-0.01;0.01;-0.64;148;27;7857
14355;-0.77;-0.01;0.01;-0.64;145;24;7854
14373;-0.77;-0.01;0.01;-0.64;141;26;7847
14390;-0.77;-0.01;0.01;-0.64;143;25;7850
14412;-0.77;-0.01;0.01;-0.64;147;28;7854
14428;-0.77;-0.01;0.01;-0.64;146;27;7847
14446;-0.77;-0.01;0.01;-0.64;145;30;7847
14465;-0.77;-0.01;0.01;-0.64;145;27;7847
14483;-0.77;-0.01;0.01;-0.64;142;24;7852
14499;-0.77;-0.01;0.01;-0.64;143;26;7856
14516;-0.77;-0.01;0.01;-0.64;145;29;7859
14541;-0.77;-0.01;0.01;-0.64;149;25;7849
14558;-0.77;-0.01;0.01;-0.64;146;24;7849
14575;-0.77;-0.01;0.01;-0.64;139;24;7855
14592;-0.77;-0.01;0.01;-0.64;138;23;7853
14612;-0.77;-0.01;0.01;-0.64;138;24;7857
14632;-0.77;-0.01;0.01;-0.64;137;26;7854
14648;-0.77;-0.01;0.01;-0.64;138;31;7857
14667;-0.77;-0.01;0.01;-0.64;139;30;7860
14686;-0.77;-0.01;0.01;-0.64;139;32;7865
14705;-0.77;-0.01;0.01;-0.64;134;33;7860
14723;-0.77;-0.01;0.01;-0.64;133;31;7854
14760;-0.77;-0.01;0.01;-0.64;134;32;7854
14776;-0.77;-0.01;0.01;-0.64;137;31;7856
14794;-0.77;-0.01;0.01;-0.64;136;28;7854
14810;-0.77;-0.01;0.01;-0.64;131;29;7858
14829;-0.77;-0.01;0.01;-0.64;130;29;7861
14847;-0.77;-0.01;0.01;-0.64;134;29;7863
14868;-0.77;-0.01;0.01;-0.64;135;30;7862
14884;-0.77;-0.01;0.01;-0.64;135;29;7856
14903;-0.77;-0.01;0.01;-0.64;136;25;7855
14922;-0.77;-0.01;0.01;-0.64;136;27;7859
14938;-0.77;-0.01;0.01;-0.64;136;24;7860
14955;-0.77;-0.01;0.01;-0.64;137;26;7861
14974;-0.77;-0.01;0.01;-0.64;136;29;7867
14993;-0.77;-0.01;0.01;-0.64;141;26;7869
15009;-0.77;-0.01;0.01;-0.64;142;25;7866
15025;-0.77;-0.01;0.01;-0.64;143;25;7862
15045;-0.77;-0.01;0.01;-0.64;141;27;7854
15070;-0.77;-0.01;0.01;-0.64;137;22;7860
15090;-0.77;-0.01;0.01;-0.64;133;19;7860
15107;-0.77;-0.01;0.01;-0.64;130;26;7858
15127;-0.77;-0.01;0.01;-0.64;135;30;7854
15144;-0.77;-0.01;0.01;-0.64;134;28;7855
15160;-0.77;-0.01;0.01;-0.64;135;27;7855
15178;-0.77;-0.01;0.01;-0.64;136;28;7856
15197;-0.77;-0.01;0.01;-0.64;134;31;7853
15215;-0.77;-0.01;0.00;-0.64;135;32;7859
15231;-0.77;-0.01;0.00;-0.64;133;32;7860
15249;-0.77;-0.01;0.00;-0.64;136;31;7856
15268;-0.77;-0.01;0.00;-0.64;131;28;7862
15285;-0.77;-0.01;0.00;-0.64;132;26;7863
15306;-0.77;-0.01;0.00;-0.64;135;28;7865
15323;-0.77;-0.01;0.00;-0.64;136;32;7859
15341;-0.77;-0.01;0.00;-0.64;137;31;7861
15358;-0.77;-0.01;0.00;-0.64;139;30;7855
15377;-0.77;-0.01;0.00;-0.64;138;29;7856
15394;-0.77;-0.01;0.00;-0.64;135;26;7858
16420;-0.77;-0.01;0.00;-0.64;145;28;7860
16437;-0.77;-0.01;0.00;-0.64;144;30;7857
16456;-0.77;-0.01;0.00;-0.64;142;32;7860
16473;-0.77;-0.01;0.00;-0.64;144;33;7858
16491;-0.77;-0.01;0.00;-0.64;143;33;7863
16508;-0.77;-0.01;0.00;-0.64;144;29;7861
16530;-0.77;-0.01;0.00;-0.64;137;27;7866
16546;-0.77;-0.01;0.00;-0.64;136;27;7865
16564;-0.77;-0.01;0.00;-0.64;135;27;7863
16583;-0.77;-0.01;0.00;-0.64;137;28;7856
16600;-0.77;-0.01;0.00;-0.64;138;25;7854
16617;-0.77;-0.01;0.00;-0.64;143;28;7854
16640;-0.77;-0.01;0.00;-0.64;135;25;7853
16659;-0.77;-0.01;0.00;-0.64;135;24;7852
16676;-0.77;-0.01;0.00;-0.64;132;25;7853
16692;-0.77;-0.01;0.00;-0.64;135;27;7848
16711;-0.77;-0.01;0.00;-0.64;134;27;7853
16729;-0.77;-0.01;0.00;-0.64;138;28;7858
16747;-0.77;-0.01;0.00;-0.64;139;24;7855
16766;-0.77;-0.01;0.00;-0.64;141;25;7861
16786;-0.77;-0.01;0.00;-0.64;140;26;7855
16804;-0.77;-0.01;0.00;-0.64;141;31;7852
16820;-0.77;-0.01;0.00;-0.64;139;31;7857
16837;-0.77;-0.01;0.00;-0.64;137;29;7855
16856;-0.77;-0.01;0.00;-0.64;139;28;7858
16875;-0.77;-0.01;0.00;-0.64;138;28;7853
16891;-0.77;-0.01;0.00;-0.64;137;29;7858
16907;-0.77;-0.01;0.00;-0.64;132;28;7860
16927;-0.77;-0.01;0.00;-0.64;135;30;7859
16945;-0.77;-0.01;0.00;-0.64;138;30;7855
16962;-0.77;-0.01;0.00;-0.64;140;29;7856
16983;-0.77;-0.01;0.00;-0.64;143;31;7859
17002;-0.77;-0.01;0.00;-0.64;139;30;7861
17019;-0.77;-0.01;0.00;-0.64;138;30;7862
17035;-0.77;-0.01;0.00;-0.64;137;32;7858
17054;-0.77;-0.01;0.00;-0.64;140;29;7860
17072;-0.77;-0.01;0.00;-0.64;143;29;7857
17091;-0.77;-0.01;0.00;-0.64;145;30;7853
17107;-0.77;-0.01;0.00;-0.64;140;32;7860
17125;-0.77;-0.01;0.00;-0.64;138;32;7861
17144;-0.77;-0.01;0.00;-0.64;138;35;7857
17161;-0.77;-0.01;0.00;-0.64;138;39;7861
17178;-0.77;-0.01;0.00;-0.64;134;36;7868
17210;-0.77;-0.01;0.00;-0.64;133;27;7862
17227;-0.77;-0.01;0.00;-0.64;132;27;7862
17245;-0.77;-0.01;0.00;-0.64;134;28;7861
17263;-0.77;-0.01;0.00;-0.64;132;26;7863
17280;-0.77;-0.01;0.00;-0.64;129;25;7867
17299;-0.77;-0.01;0.00;-0.64;135;27;7861
17316;-0.77;-0.01;0.00;-0.64;137;27;7859
17333;-0.77;-0.01;0.00;-0.64;137;27;7866
17351;-0.77;-0.01;0.00;-0.64;140;25;7862
17369;-0.77;-0.01;0.00;-0.64;139;28;7857
17387;-0.77;-0.01;0.00;-0.64;140;25;7854
17404;-0.77;-0.01;0.00;-0.64;140;22;7855
17425;-0.77;-0.01;0.00;-0.64;142;21;7854
17443;-0.77;-0.01;0.00;-0.64;144;24;7857
17461;-0.77;-0.01;0.00;-0.64;144;25;7857
17479;-0.77;-0.01;0.00;-0.64;145;28;7855
17496;-0.77;-0.01;0.00;-0.64;146;31;7863
17514;-0.77;-0.01;0.00;-0.64;145;32;7871
17532;-0.77;-0.01;0.00;-0.64;142;30;7868
17551;-0.77;-0.01;0.00;-0.64;139;28;7864
17567;-0.77;-0.01;0.00;-0.64;137;30;7865
17584;-0.77;-0.01;0.00;-0.64;132;29;7864
17604;-0.77;-0.01;0.00;-0.64;133;28;7864
17621;-0.77;-0.01;0.00;-0.64;134;27;7861
17643;-0.77;-0.01;0.00;-0.64;135;27;7863
17675;-0.77;-0.01;0.00;-0.64;139;25;7865
17693;-0.77;-0.01;0.00;-0.64;135;23;7866
17710;-0.77;-0.01;0.00;-0.64;137;26;7865
17727;-0.77;-0.01;0.00;-0.64;139;23;7861
17749;-0.77;-0.01;0.00;-0.64;135;27;7865
17768;-0.77;-0.01;0.00;-0.64;133;25;7868
17786;-0.77;-0.01;0.00;-0.64;137;24;7867
17802;-0.77;-0.01;0.00;-0.64;138;27;7862
17820;-0.77;-0.01;0.00;-0.64;141;26;7866
17839;-0.77;-0.01;0.00;-0.64;148;28;7868
17857;-0.77;-0.01;0.00;-0.64;150;30;7872
17873;-0.77;-0.01;0.00;-0.64;147;32;7873
17895;-0.77;-0.01;0.00;-0.64;146;32;7876
17914;-0.77;-0.01;0.00;-0.64;143;35;7871
17931;-0.77;-0.01;0.00;-0.64;141;35;7872
17949;-0.77;-0.01;0.00;-0.64;138;33;7862
17972;-0.77;-0.01;0.00;-0.64;134;33;7860
17990;-0.77;-0.01;0.00;-0.64;132;34;7861
18007;-0.77;-0.01;0.00;-0.64;133;32;7863
18024;-0.77;-0.01;0.00;-0.64;135;32;7865
18042;-0.77;-0.01;0.00;-0.64;139;32;7864
18061;-0.77;-0.01;0.00;-0.64;139;32;7867
18078;-0.77;-0.01;0.00;-0.64;142;30;7859
18094;-0.77;-0.01;0.00;-0.64;142;25;7862
18118;-0.77;-0.01;0.00;-0.64;145;20;7860
18135;-0.77;-0.01;0.00;-0.64;147;21;7862
18152;-0.77;-0.01;0.00;-0.64;146;23;7859
18169;-0.77;-0.01;0.00;-0.64;147;24;7866
18188;-0.77;-0.01;0.00;-0.64;149;29;7868
18206;-0.77;-0.01;0.00;-0.64;147;30;7861
18222;-0.77;-0.01;0.00;-0.64;149;30;7859
18241;-0.77;-0.01;0.00;-0.64;149;27;7861
18259;-0.77;-0.01;0.00;-0.64;149;29;7855
18278;-0.77;-0.01;0.00;-0.64;141;29;7854
18299;-0.77;-0.01;0.00;-0.64;146;28;7868
18317;-0.77;-0.01;0.00;-0.64;144;29;7869
18339;-0.77;-0.01;0.00;-0.64;144;30;7869
18356;-0.77;-0.01;0.00;-0.64;148;32;7864
18374;-0.77;-0.01;0.00;-0.64;149;33;7862
18391;-0.77;-0.01;0.00;-0.64;147;30;7865
18410;-0.77;-0.01;0.00;-0.64;147;34;7861
18427;-0.77;-0.01;0.00;-0.64;145;36;7867
18444;-0.77;-0.01;0.00;-0.64;140;37;7862
18463;-0.77;-0.01;0.00;-0.64;138;35;7869
18480;-0.77;-0.01;0.00;-0.64;139;33;7867
18498;-0.77;-0.01;0.00;-0.64;140;32;7865
18516;-0.77;-0.01;0.00;-0.64;137;25;7862
18534;-0.77;-0.01;0.00;-0.64;136;27;7866
18554;-0.77;-0.01;0.00;-0.64;139;27;7864
18572;-0.77;-0.01;0.00;-0.64;140;27;7866
18590;-0.77;-0.01;0.00;-0.64;140;21;7867
18606;-0.77;-0.01;0.00;-0.64;133;22;7862
18625;-0.77;-0.01;0.00;-0.64;136;24;7867
18643;-0.77;-0.01;0.00;-0.64;139;27;7867
18660;-0.77;-0.01;0.00;-0.64;142;26;7864
18676;-0.77;-0.01;0.00;-0.64;141;28;7863
18694;-0.77;-0.01;0.00;-0.64;141;29;7865
18714;-0.77;-0.01;0.00;-0.64;138;27;7866
18730;-0.77;-0.01;0.00;-0.64;137;26;7864
18747;-0.77;-0.01;0.00;-0.64;133;24;7864
18769;-0.77;-0.01;0.00;-0.64;132;26;7860
18786;-0.77;-0.01;0.00;-0.64;134;29;7861
18803;-0.77;-0.01;0.00;-0.64;137;35;7859
18821;-0.77;-0.01;0.00;-0.64;140;34;7853
18849;-0.77;-0.01;0.00;-0.64;146;24;7857
18866;-0.77;-0.01;0.00;-0.64;141;26;7857
18883;-0.77;-0.01;0.00;-0.64;137;21;7861
18901;-0.77;-0.01;0.00;-0.64;141;26;7862
18920;-0.77;-0.01;0.00;-0.64;137;30;7860
18937;-0.77;-0.01;0.00;-0.64;137;31;7862
18953;-0.77;-0.01;0.00;-0.64;137;34;7851
18972;-0.77;-0.01;0.00;-0.64;138;33;7849
18990;-0.77;-0.01;0.00;-0.64;137;33;7853
19011;-0.77;-0.01;0.00;-0.64;139;28;7855
19028;-0.77;-0.01;0.00;-0.64;135;29;7852
19046;-0.77;-0.01;0.00;-0.64;135;29;7859
19064;-0.77;-0.01;0.00;-0.64;133;30;7856
19081;-0.77;-0.01;0.00;-0.64;132;28;7855
19099;-0.77;-0.01;0.00;-0.64;131;28;7849
19116;-0.77;-0.01;0.00;-0.64;133;29;7849
19135;-0.77;-0.01;0.00;-0.64;135;29;7857
19152;-0.77;-0.01;0.00;-0.64;135;33;7861
19169;-0.77;-0.01;0.00;-0.64;134;31;7861
19187;-0.77;-0.01;0.00;-0.64;132;31;7857
19205;-0.77;-0.01;0.00;-0.64;137;29;7860
19227;-0.77;-0.01;0.00;-0.64;141;26;7860
19244;-0.77;-0.01;0.00;-0.64;139;29;7857
20268;-0.77;-0.01;0.00;-0.64;133;29;7858
20286;-0.77;-0.01;0.00;-0.64;131;27;7856
20305;-0.77;-0.01;0.00;-0.64;128;25;7854
20322;-0.77;-0.01;0.00;-0.64;131;25;7851
20339;-0.77;-0.01;0.00;-0.64;133;22;7849
20356;-0.77;-0.01;0.00;-0.64;136;22;7849
20376;-0.77;-0.01;0.00;-0.64;136;23;7852
20393;-0.77;-0.01;0.00;-0.64;135;27;7847
20419;-0.77;-0.01;0.00;-0.64;139;28;7857
20436;-0.77;-0.01;0.00;-0.64;135;25;7858
20469;-0.77;-0.01;0.00;-0.64;130;23;7858
20489;-0.77;-0.01;0.00;-0.64;131;21;7861
20509;-0.77;-0.01;0.00;-0.64;129;18;7856
20529;-0.77;-0.01;0.00;-0.64;132;23;7857
20549;-0.77;-0.01;0.00;-0.64;135;23;7857
20570;-0.77;-0.01;0.00;-0.64;135;25;7856
20590;-0.77;-0.01;0.00;-0.64;139;25;7855
20625;-0.77;-0.01;0.00;-0.64;143;27;7859
20645;-0.77;-0.01;0.00;-0.64;143;31;7861
20664;-0.77;-0.01;0.00;-0.64;139;27;7859
20683;-0.77;-0.01;0.00;-0.64;136;28;7858
20703;-0.77;-0.01;0.00;-0.64;142;28;7855
20727;-0.77;-0.01;0.00;-0.64;145;26;7851
20746;-0.77;-0.01;0.00;-0.64;148;28;7857
20767;-0.77;-0.01;0.00;-0.64;146;26;7850
20786;-0.77;-0.01;0.00;-0.64;142;23;7850
20807;-0.77;-0.01;0.00;-0.64;141;22;7854
20826;-0.77;-0.01;0.00;-0.64;136;18;7857
20847;-0.77;-0.01;0.00;-0.64;138;21;7859
20866;-0.77;-0.01;0.00;-0.64;138;20;7855
20890;-0.77;-0.01;0.00;-0.64;141;32;7867
20910;-0.77;-0.01;0.00;-0.64;142;31;7865
20930;-0.77;-0.01;0.00;-0.64;139;29;7861
20949;-0.77;-0.01;0.00;-0.64;139;31;7868
20973;-0.77;-0.01;0.00;-0.64;138;28;7873
20993;-0.77;-0.01;0.00;-0.64;139;29;7865
21013;-0.77;-0.01;0.00;-0.64;141;26;7861
21032;-0.77;-0.01;0.00;-0.64;137;22;7858
21052;-0.77;-0.01;0.00;-0.64;135;22;7864
21073;-0.77;-0.01;0.00;-0.64;139;24;7861
21093;-0.77;-0.01;0.00;-0.64;134;25;7859
21111;-0.77;-0.01;0.00;-0.64;134;23;7849
21131;-0.77;-0.01;0.00;-0.64;138;22;7850
21152;-0.77;-0.01;0.00;-0.64;140;25;7854
21173;-0.77;-0.01;0.00;-0.64;140;26;7851
21193;-0.77;-0.01;0.00;-0.64;141;23;7853
21217;-0.77;-0.01;0.00;-0.64;141;25;7850
21241;-0.77;-0.01;0.00;-0.64;145;24;7840
21259;-0.77;-0.01;0.00;-0.64;143;23;7843
21278;-0.77;-0.01;0.00;-0.64;141;27;7850
21299;-0.77;-0.01;0.00;-0.64;139;28;7852
21321;-0.77;-0.01;0.00;-0.64;140;29;7852
21339;-0.77;-0.01;0.00;-0.64;138;29;7855
21358;-0.77;-0.01;0.00;-0.64;139;27;7856
21391;-0.77;-0.01;0.01;-0.64;142;36;7859
21411;-0.77;-0.01;0.01;-0.64;137;35;7852
21429;-0.77;-0.01;0.01;-0.64;133;31;7857
21448;-0.77;-0.01;0.01;-0.64;134;33;7862
21469;-0.77;-0.01;0.01;-0.64;143;36;7863
21493;-0.77;-0.01;0.01;-0.64;144;37;7861
21511;-0.77;-0.01;0.01;-0.64;142;36;7860
21532;-0.77;-0.01;0.01;-0.64;143;33;7864
21553;-0.77;-0.01;0.01;-0.64;140;31;7859
21573;-0.77;-0.01;0.01;-0.64;140;27;7859
21591;-0.77;-0.01;0.01;-0.64;142;26;7861
21612;-0.77;-0.01;0.01;-0.64;146;30;7857
21633;-0.77;-0.01;0.01;-0.64;148;31;7856
21653;-0.77;-0.01;0.01;-0.64;145;31;7851
21671;-0.77;-0.01;0.01;-0.64;148;25;7852
21692;-0.77;-0.01;0.01;-0.64;146;25;7862
21712;-0.77;-0.01;0.01;-0.64;141;25;7862
21735;-0.77;-0.01;0.01;-0.64;139;24;7861
21755;-0.77;-0.01;0.01;-0.64;143;25;7863
21775;-0.77;-0.01;0.01;-0.64;142;24;7870
21795;-0.77;-0.01;0.01;-0.64;141;26;7872
21814;-0.77;-0.01;0.01;-0.64;138;24;7875
21835;-0.77;-0.01;0.01;-0.64;143;21;7876
21854;-0.77;-0.01;0.01;-0.64;141;25;7877
21880;-0.77;-0.01;0.01;-0.64;143;14;7846
21899;-0.77;-0.01;0.01;-0.64;146;19;7848
21919;-0.77;-0.01;0.01;-0.64;142;18;7847
21939;-0.77;-0.01;0.01;-0.64;137;22;7846
21959;-0.77;-0.01;0.01;-0.64;139;20;7844
21983;-0.77;-0.01;0.01;-0.64;140;18;7846
22003;-0.77;-0.01;0.01;-0.64;138;22;7846
22021;-0.77;-0.01;0.01;-0.64;137;25;7847
22042;-0.77;-0.01;0.01;-0.64;135;27;7851
22063;-0.77;-0.01;0.01;-0.64;139;27;7857
22083;-0.77;-0.01;0.01;-0.64;139;22;7853
22101;-0.77;-0.01;0.01;-0.64;139;25;7851
22122;-0.77;-0.01;0.01;-0.64;144;24;7851
22143;-0.77;-0.01;0.01;-0.64;142;23;7850
22163;-0.77;-0.01;0.01;-0.64;144;23;7854
22181;-0.77;-0.01;0.01;-0.64;144;24;7850
22202;-0.77;-0.01;0.01;-0.64;142;23;7854
22226;-0.77;-0.01;0.01;-0.64;144;24;7849
22246;-0.77;-0.01;0.01;-0.64;141;24;7849
22264;-0.77;-0.01;0.01;-0.64;137;27;7849
22285;-0.77;-0.01;0.01;-0.64;136;26;7855
22306;-0.77;-0.01;0.01;-0.64;137;26;7853
22325;-0.77;-0.01;0.01;-0.64;135;28;7850
22344;-0.77;-0.01;0.01;-0.64;137;30;7859
22369;-0.77;-0.01;0.01;-0.64;132;23;7850
22391;-0.77;-0.01;0.01;-0.64;134;28;7851
22409;-0.77;-0.01;0.01;-0.64;130;28;7857
22428;-0.77;-0.01;0.01;-0.64;125;24;7860
22449;-0.77;-0.01;0.01;-0.64;126;23;7860
22473;-0.77;-0.01;0.01;-0.64;129;20;7863
22492;-0.77;-0.01;0.01;-0.64;127;21;7866
22512;-0.77;-0.01;0.01;-0.64;130;26;7861
22533;-0.77;-0.01;0.01;-0.64;131;25;7859
22553;-0.77;-0.01;0.01;-0.64;134;23;7856
22571;-0.77;-0.01;0.01;-0.64;136;19;7854
22592;-0.77;-0.01;0.01;-0.64;140;22;7858
22613;-0.77;-0.01;0.01;-0.64;138;21;7852
22633;-0.77;-0.01;0.01;-0.64;139;26;7852
22651;-0.77;-0.01;0.01;-0.64;135;27;7855
22672;-0.77;-0.01;0.01;-0.64;137;29;7857
22693;-0.77;-0.01;0.01;-0.64;134;29;7853
22714;-0.77;-0.01;0.01;-0.64;134;23;7856
22753;-0.77;-0.01;0.01;-0.64;135;21;7857
22772;-0.77;-0.01;0.01;-0.64;134;22;7855
22791;-0.77;-0.01;0.01;-0.64;131;19;7857
22812;-0.77;-0.01;0.01;-0.64;132;19;7855
22839;-0.77;-0.01;0.01;-0.64;139;23;7869
22859;-0.77;-0.01;0.01;-0.64;133;23;7866
22879;-0.77;-0.01;0.01;-0.64;134;21;7872
22899;-0.77;-0.01;0.01;-0.64;138;21;7875
22919;-0.77;-0.01;0.01;-0.64;138;18;7873
22939;-0.77;-0.01;0.01;-0.64;135;19;7868
22959;-0.77;-0.01;0.01;-0.64;136;20;7861
22979;-0.77;-0.01;0.01;-0.64;137;21;7857
23002;-0.77;-0.01;0.01;-0.64;134;18;7860
23022;-0.77;-0.01;0.01;-0.64;134;20;7856
23041;-0.77;-0.01;0.01;-0.64;136;19;7859
23063;-0.77;-0.01;0.01;-0.64;135;20;7857
23082;-0.77;-0.01;0.01;-0.64;137;23;7857
23101;-0.77;-0.01;0.01;-0.64;136;25;7856
23121;-0.77;-0.01;0.01;-0.64;136;27;7852
23143;-0.77;-0.01;0.01;-0.64;140;27;7855
23162;-0.77;-0.01;0.01;-0.64;135;26;7859
23180;-0.77;-0.01;0.01;-0.64;133;24;7857
23201;-0.77;-0.01;0.01;-0.64;132;21;7855
23222;-0.77;-0.01;0.01;-0.64;133;22;7857
23245;-0.77;-0.01;0.01;-0.64;131;22;7854
23263;-0.77;-0.01;0.01;-0.64;128;23;7851
23285;-0.77;-0.01;0.01;-0.64;133;20;7845
23305;-0.77;-0.01;0.01;-0.64;130;19;7849
23329;-0.77;-0.01;0.01;-0.64;142;23;7847
23347;-0.77;-0.01;0.01;-0.64;142;23;7851
23369;-0.77;-0.01;0.01;-0.64;142;27;7854
23389;-0.77;-0.01;0.01;-0.64;146;26;7856
23409;-0.77;-0.01;0.01;-0.64;143;25;7854
23427;-0.77;-0.01;0.01;-0.64;140;25;7857
23449;-0.77;-0.01;0.01;-0.64;136;27;7852
24479;-0.77;-0.01;0.01;-0.64;141;21;7859
24500;-0.77;-0.01;0.01;-0.64;136;20;7865
24521;-0.77;-0.01;0.01;-0.64;136;23;7867
24541;-0.77;-0.01;0.01;-0.64;137;19;7865
24561;-0.77;-0.01;0.01;-0.64;140;16;7864
24579;-0.77;-0.01;0.01;-0.64;142;19;7866
24600;-0.77;-0.01;0.01;-0.64;141;21;7868
24619;-0.77;-0.01;0.01;-0.64;137;24;7866
24639;-0.77;-0.01;0.01;-0.64;133;22;7862
24660;-0.77;-0.01;0.01;-0.64;129;21;7862
24681;-0.77;-0.01;0.01;-0.64;133;23;7856
24710;-0.77;-0.01;0.01;-0.64;139;26;7853
24729;-0.77;-0.01;0.01;-0.64;136;23;7856
24752;-0.77;-0.01;0.01;-0.64;133;20;7855
24771;-0.77;-0.01;0.01;-0.64;128;20;7857
24791;-0.77;-0.01;0.01;-0.64;125;18;7859
24819;-0.77;-0.01;0.01;-0.64;142;23;7855
24838;-0.77;-0.01;0.01;-0.64;139;19;7852
24857;-0.77;-0.01;0.01;-0.64;140;21;7853
24877;-0.77;-0.01;0.01;-0.64;138;17;7858
24898;-0.77;-0.01;0.01;-0.64;138;20;7863
24918;-0.77;-0.01;0.01;-0.64;134;21;7869
24937;-0.77;-0.01;0.01;-0.64;131;23;7870
24956;-0.77;-0.01;0.01;-0.64;133;22;7867
24978;-0.77;-0.01;0.01;-0.64;137;23;7861
24997;-0.77;-0.01;0.01;-0.64;139;23;7860
25019;-0.77;-0.01;0.01;-0.64;137;23;7853
25040;-0.77;-0.01;0.01;-0.64;137;21;7857
25061;-0.77;-0.01;0.01;-0.64;138;19;7857
25079;-0.77;-0.01;0.01;-0.64;139;20;7857
25097;-0.77;-0.01;0.01;-0.64;133;21;7857
25119;-0.77;-0.01;0.01;-0.64;137;19;7863
25140;-0.77;-0.01;0.01;-0.64;140;18;7860
25159;-0.77;-0.01;0.01;-0.64;141;17;7858
25177;-0.77;-0.01;0.01;-0.64;139;21;7862
25199;-0.77;-0.01;0.01;-0.64;137;19;7859
25219;-0.77;-0.01;0.01;-0.64;135;25;7852
25238;-0.77;-0.01;0.01;-0.64;136;22;7849
25260;-0.77;-0.01;0.01;-0.64;135;23;7857
25282;-0.77;-0.01;0.01;-0.64;129;29;7860
25308;-0.77;-0.01;0.01;-0.64;137;24;7855
25327;-0.77;-0.01;0.01;-0.64;140;26;7856
25347;-0.77;-0.01;0.01;-0.64;144;24;7849
25368;-0.77;-0.01;0.01;-0.64;136;28;7852
25387;-0.77;-0.01;0.01;-0.64;141;28;7858
25406;-0.77;-0.01;0.01;-0.64;141;23;7860
25426;-0.77;-0.01;0.01;-0.64;141;23;7862
25447;-0.77;-0.01;0.01;-0.64;140;26;7867
25467;-0.77;-0.01;0.01;-0.64;136;28;7863
25485;-0.77;-0.01;0.01;-0.64;132;28;7873
25509;-0.77;-0.01;0.01;-0.64;136;26;7875
25530;-0.77;-0.01;0.01;-0.64;138;23;7872
25549;-0.77;-0.01;0.01;-0.64;145;23;7865
25568;-0.77;-0.01;0.01;-0.64;141;22;7860
25588;-0.77;-0.01;0.01;-0.64;139;22;7853
25608;-0.77;-0.01;0.01;-0.64;138;22;7856
25628;-0.77;-0.01;0.01;-0.64;136;23;7853
25648;-0.77;-0.01;0.01;-0.64;139;29;7855
25668;-0.77;-0.01;0.01;-0.64;135;31;7855
25687;-0.77;-0.01;0.01;-0.64;134;24;7858
25707;-0.77;-0.01;0.01;-0.64;135;21;7856
25727;-0.77;-0.01;0.01;-0.64;134;21;7862
25750;-0.77;-0.01;0.01;-0.64;138;25;7858
25769;-0.77;-0.01;0.01;-0.64;142;25;7852
25798;-0.77;-0.01;0.01;-0.64;133;27;7848
25818;-0.77;-0.01;0.01;-0.64;134;28;7851
25838;-0.77;-0.01;0.01;-0.64;134;27;7850
25859;-0.77;-0.01;0.01;-0.64;137;31;7855
25897;-0.77;-0.01;0.01;-0.64;138;29;7858
25916;-0.77;-0.01;0.01;-0.64;141;27;7862
25935;-0.77;-0.01;0.01;-0.64;141;28;7862
25954;-0.77;-0.01;0.01;-0.64;140;26;7858
25976;-0.77;-0.01;0.01;-0.64;141;24;7860
25995;-0.77;-0.01;0.01;-0.64;138;23;7856
26017;-0.77;-0.01;0.01;-0.64;137;20;7857
26037;-0.77;-0.01;0.01;-0.64;139;24;7856
26059;-0.77;-0.01;0.01;-0.64;139;19;7850
26077;-0.77;-0.01;0.01;-0.64;137;18;7851
26096;-0.77;-0.01;0.01;-0.64;136;18;7847
26117;-0.77;-0.01;0.01;-0.64;134;23;7850
26138;-0.77;-0.01;0.01;-0.64;138;19;7847
26156;-0.77;-0.01;0.01;-0.64;136;24;7842
26175;-0.77;-0.01;0.01;-0.64;140;21;7842
26196;-0.77;-0.01;0.01;-0.64;139;21;7848
26218;-0.77;-0.01;0.01;-0.64;144;22;7848
26236;-0.77;-0.01;0.01;-0.64;144;23;7854
26255;-0.77;-0.01;0.01;-0.64;141;24;7858
26288;-0.77;-0.01;0.01;-0.64;135;16;7860
26308;-0.77;-0.01;0.01;-0.64;137;18;7861
26326;-0.77;-0.01;0.01;-0.64;136;21;7860
26347;-0.77;-0.01;0.01;-0.64;136;26;7859
26367;-0.77;-0.01;0.01;-0.64;135;24;7859
26388;-0.77;-0.01;0.01;-0.64;135;24;7866
26406;-0.77;-0.01;0.01;-0.64;139;22;7868
26426;-0.77;-0.01;0.01;-0.64;134;18;7871
26447;-0.77;-0.01;0.01;-0.64;135;16;7863
26466;-0.77;-0.01;0.01;-0.64;136;20;7862
26485;-0.77;-0.01;0.01;-0.64;139;21;7859
26504;-0.77;-0.01;0.01;-0.64;139;19;7852
26529;-0.77;-0.01;0.01;-0.64;136;15;7857
26548;-0.77;-0.01;0.01;-0.64;133;18;7861
26569;-0.77;-0.01;0.01;-0.64;134;19;7863
26588;-0.77;-0.01;0.01;-0.64;136;20;7863
26608;-0.77;-0.01;0.01;-0.64;136;25;7868
26628;-0.77;-0.01;0.01;-0.64;138;30;7862
26648;-0.77;-0.01;0.01;-0.64;143;29;7867
26668;-0.77;-0.01;0.01;-0.64;148;30;7864
26688;-0.77;-0.01;0.01;-0.64;143;27;7865
26707;-0.77;-0.01;0.01;-0.64;141;26;7865
26728;-0.77;-0.01;0.01;-0.64;140;24;7863
26747;-0.77;-0.01;0.01;-0.64;141;23;7862
26778;-0.77;-0.01;0.01;-0.64;140;16;7858
26799;-0.77;-0.01;0.01;-0.64;140;16;7855
26819;-0.77;-0.01;0.01;-0.64;140;14;7852
26837;-0.77;-0.01;0.01;-0.64;141;13;7855
26858;-0.77;-0.01;0.01;-0.64;138;20;7862
26879;-0.77;-0.01;0.01;-0.64;134;23;7868
26899;-0.77;-0.01;0.01;-0.64;136;26;7869
26917;-0.77;-0.01;0.01;-0.64;140;22;7874
26938;-0.77;-0.01;0.01;-0.64;142;25;7878
26959;-0.77;-0.01;0.01;-0.64;143;24;7869
26978;-0.77;-0.01;0.01;-0.64;140;23;7863
26997;-0.77;-0.01;0.01;-0.64;140;21;7859
27021;-0.77;-0.01;0.01;-0.64;136;26;7862
27042;-0.77;-0.01;0.01;-0.64;136;27;7860
27060;-0.77;-0.01;0.01;-0.64;136;23;7862
27080;-0.77;-0.01;0.01;-0.64;131;25;7859
27101;-0.77;-0.01;0.01;-0.64;128;24;7860
27122;-0.77;-0.01;0.01;-0.64;133;28;7852
27141;-0.77;-0.01;0.01;-0.64;130;32;7852
27162;-0.77;-0.01;0.01;-0.64;132;28;7849
27189;-0.77;-0.01;0.01;-0.64;132;27;7852
27209;-0.77;-0.01;0.01;-0.64;134;27;7854
27228;-0.77;-0.01;0.01;-0.64;136;29;7853
27247;-0.77;-1.27;-0.12;-1.75;23809;-5805;6
27277;-0.77;-0.01;0.01;-0.64;125;20;7854
27298;-0.77;-0.01;0.01;-0.64;131;20;7860
27316;-0.77;-0.01;0.01;-0.64;133;23;7862
27336;-0.77;-0.01;0.01;-0.64;134;24;7860
27357;-0.77;-0.01;0.01;-0.64;137;23;7858
27378;-0.77;-0.01;0.01;-0.64;133;23;7854
27396;-0.77;-0.01;0.01;-0.64;133;24;7850
27417;-0.77;-0.01;0.01;-0.64;137;22;7853
27437;-0.77;-0.01;0.01;-0.64;141;20;7852
27458;-0.77;-0.01;0.01;-0.64;139;16;7849
27476;-0.77;-0.01;0.01;-0.64;139;17;7851
27496;-0.77;-0.01;0.01;-0.64;139;17;7849
27520;-0.77;-0.01;0.01;-0.64;140;17;7847
27540;-0.77;-0.01;0.01;-0.64;142;19;7845
27560;-0.77;-0.01;0.01;-0.64;142;16;7842
27580;-0.77;-0.01;0.01;-0.64;137;19;7844
27600;-0.77;-0.01;0.01;-0.64;136;19;7847
27620;-0.77;-0.01;0.01;-0.64;136;21;7847
27640;-0.77;-0.01;0.01;-0.64;139;20;7845
27659;-0.77;-0.01;0.01;-0.64;142;19;7853
28688;-0.77;-0.01;0.01;-0.64;130;21;7855
28707;-0.77;-0.01;0.01;-0.64;126;22;7859
28726;-0.77;-0.01;0.01;-0.64;126;28;7867
28747;-0.77;-0.01;0.01;-0.64;129;33;7867
28777;-0.77;-0.01;0.01;-0.64;136;21;7865
28801;-0.77;-0.01;0.01;-0.64;136;25;7864
28821;-0.77;-0.01;0.01;-0.64;137;23;7860
28839;-0.77;-0.01;0.01;-0.64;135;23;7853
28860;-0.77;-0.01;0.01;-0.64;138;22;7851
28881;-0.77;-0.01;0.01;-0.64;138;21;7848
28901;-0.77;-0.01;0.01;-0.64;136;24;7854
28919;-0.77;-0.01;0.01;-0.64;134;22;7848
28939;-0.77;-0.01;0.01;-0.64;137;19;7846
28961;-0.77;-0.01;0.01;-0.64;136;18;7847
28980;-0.77;-0.01;0.01;-0.64;136;22;7854
29000;-0.77;-0.01;0.01;-0.64;139;24;7856
29021;-0.77;-0.01;0.01;-0.64;142;28;7857
29063;-0.77;-0.01;0.01;-0.64;142;28;7856
29082;-0.77;-0.01;0.01;-0.64;143;26;7862
29100;-0.77;-0.01;0.01;-0.64;137;23;7859
29122;-0.77;-0.01;0.01;-0.64;136;22;7858
29142;-0.77;-0.01;0.01;-0.64;138;27;7850
29162;-0.77;-0.01;0.01;-0.64;138;26;7851
29180;-0.77;-0.01;0.01;-0.64;135;28;7858
29202;-0.77;-0.01;0.01;-0.64;134;28;7864
29222;-0.77;-0.01;0.01;-0.64;136;26;7868
29247;-0.77;-0.01;0.01;-0.64;134;19;7863
29265;-0.77;-0.01;0.01;-0.64;132;19;7861
29287;-0.77;-0.01;0.01;-0.64;135;18;7858
29311;-0.77;-0.01;0.01;-0.64;134;21;7854
29330;-0.77;-0.01;0.01;-0.64;135;21;7855
29349;-0.77;-0.01;0.01;-0.64;140;19;7852
29371;-0.77;-0.01;0.01;-0.64;141;19;7853
29390;-0.77;-0.01;0.01;-0.64;140;22;7859
29408;-0.77;-0.01;0.01;-0.64;145;21;7857
29429;-0.77;-0.01;0.01;-0.64;146;24;7851
29450;-0.77;-0.01;0.01;-0.64;143;25;7851
29470;-0.77;-0.01;0.01;-0.64;146;25;7853
29488;-0.77;-0.01;0.01;-0.64;144;27;7857
29509;-0.77;-0.01;0.01;-0.64;140;30;7854
29529;-0.77;-0.01;0.01;-0.64;139;34;7859
29552;-0.77;-0.01;0.01;-0.64;141;28;7861
29572;-0.77;-0.01;0.01;-0.64;145;24;7857
29592;-0.77;-0.01;0.01;-0.64;142;26;7847
29612;-0.77;-0.01;0.01;-0.64;132;24;7847
29632;-0.77;-0.01;0.01;-0.64;134;26;7851
29651;-0.77;-0.01;0.01;-0.64;131;26;7854
29670;-0.77;-0.01;0.01;-0.64;129;26;7856
29690;-0.77;-0.01;0.01;-0.64;130;25;7859
29711;-0.77;-0.01;0.01;-0.64;129;29;7854
29736;-0.77;-0.01;0.01;-0.64;134;23;7857
29755;-0.77;-0.01;0.01;-0.64;136;17;7854
29775;-0.77;-0.01;0.01;-0.64;138;20;7858
29800;-0.77;-0.01;0.01;-0.64;133;22;7861
29818;-0.77;-0.01;0.01;-0.64;133;25;7859
29836;-0.77;-0.01;0.01;-0.64;136;25;7853
29858;-0.77;-0.01;0.01;-0.64;134;30;7848
29879;-0.77;-0.01;0.01;-0.64;136;27;7853
29898;-0.77;-0.01;0.01;-0.64;136;22;7852
29916;-0.77;-0.01;0.01;-0.64;131;20;7854
29938;-0.77;-0.01;0.01;-0.64;130;24;7855
29958;-0.77;-0.01;0.01;-0.64;132;24;7852
29977;-0.77;-0.01;0.01;-0.64;135;20;7854
29995;-0.77;-0.01;0.01;-0.64;134;22;7856
30017;-0.77;-0.01;0.01;-0.64;136;25;7858
30038;-0.77;-0.01;0.01;-0.64;132;26;7865
30059;-0.77;-0.01;0.01;-0.64;131;25;7873
30079;-0.77;-0.01;0.01;-0.64;130;26;7865
30101;-0.77;-0.01;0.01;-0.64;134;25;7866
30120;-0.77;-0.01;0.01;-0.64;139;22;7858
30139;-0.77;-0.01;0.01;-0.64;141;22;7860
30158;-0.77;-0.01;0.01;-0.64;143;25;7861
30180;-0.77;-0.01;0.01;-0.64;142;25;7858
30199;-0.77;-0.01;0.01;-0.64;145;23;7856
30227;-0.77;-0.01;0.01;-0.64;135;26;7856
30246;-0.77;-0.01;0.01;-0.64;134;29;7854
30268;-0.77;-0.01;0.01;-0.64;132;27;7853
30287;-0.77;-0.01;0.01;-0.64;132;27;7850
30310;-0.77;-0.01;0.01;-0.64;130;27;7852
30330;-0.77;-0.01;0.01;-0.64;130;28;7852
30349;-0.77;-0.01;0.01;-0.64;130;25;7857
30369;-0.77;-0.01;0.01;-0.64;128;23;7855
30389;-0.77;-0.01;0.01;-0.64;131;18;7858
30409;-0.77;-0.01;0.01;-0.64;133;17;7857
30429;-0.77;-0.01;0.01;-0.64;133;19;7854
30449;-0.77;-0.01;0.01;-0.64;132;18;7859
30469;-0.77;-0.01;0.01;-0.64;130;22;7864
30489;-0.77;-0.01;0.01;-0.64;131;23;7863
30508;-0.77;-0.01;0.01;-0.64;133;20;7864
30529;-0.77;-0.01;0.01;-0.64;129;25;7864
30552;-0.77;-0.01;0.01;-0.64;128;29;7862
30571;-0.77;-0.01;0.01;-0.64;124;28;7861
30590;-0.77;-0.01;0.01;-0.64;122;25;7857
30612;-0.77;-0.01;0.01;-0.64;124;27;7853
30633;-0.77;-0.01;0.01;-0.64;128;28;7861
30653;-0.77;-0.01;0.01;-0.64;127;28;7867
30677;-0.77;-0.01;0.01;-0.64;132;28;7863
30706;-0.77;-0.01;0.01;-0.64;140;19;7856
30725;-0.77;-0.01;0.01;-0.64;144;17;7857
30745;-0.77;-0.01;0.01;-0.64;136;20;7858
30764;-0.77;-0.01;0.01;-0.64;138;21;7855
30786;-0.77;-0.01;0.01;-0.64;138;23;7856
30808;-0.77;-0.01;0.01;-0.64;135;23;7863
30827;-0.77;-0.01;0.01;-0.64;138;22;7866
30848;-0.77;-0.01;0.01;-0.64;136;27;7864
30869;-0.77;-0.01;0.01;-0.64;133;28;7871
30887;-0.77;-0.01;0.01;-0.64;133;29;7877
30906;-0.77;-0.01;0.01;-0.64;134;28;7878
30927;-0.77;-0.01;0.01;-0.64;134;22;7876
30948;-0.77;-0.01;0.01;-0.64;135;21;7876
30967;-0.77;-0.01;0.01;-0.64;131;22;7872
30985;-0.77;-0.01;0.01;-0.64;135;22;7877
31007;-0.77;-0.01;0.01;-0.64;137;28;7873
31027;-0.77;-0.01;0.01;-0.64;138;25;7876
31049;-0.77;-0.01;0.01;-0.64;140;22;7870
31068;-0.77;-0.01;0.01;-0.64;141;22;7862
31090;-0.77;-0.01;0.01;-0.64;142;23;7858
31110;-0.77;-0.01;0.01;-0.64;140;25;7855
31130;-0.77;-0.01;0.01;-0.64;138;25;7858
31176;-0.77;-0.01;0.01;-0.64;142;27;7844
31195;-0.77;-0.01;0.01;-0.64;144;25;7849
31216;-0.77;-0.01;0.01;-0.64;146;25;7846
31235;-0.77;-0.01;0.01;-0.64;141;28;7845
31255;-0.77;-0.01;0.01;-0.64;138;26;7854
31275;-0.77;-0.01;0.01;-0.64;138;27;7855
31295;-0.77;-0.01;0.01;-0.64;138;24;7862
31315;-0.77;-0.01;0.01;-0.64;139;25;7861
31337;-0.77;-0.01;0.01;-0.64;138;24;7863
31357;-0.77;-0.01;0.01;-0.64;142;22;7859
31379;-0.77;-0.01;0.01;-0.64;141;23;7850
31398;-0.77;-0.01;0.01;-0.64;131;21;7850
31416;-0.77;-0.01;0.01;-0.64;134;19;7853
31436;-0.77;-0.01;0.01;-0.64;135;22;7867
31457;-0.77;-0.01;0.01;-0.64;137;22;7868
31477;-0.77;-0.01;0.01;-0.64;139;23;7865
31495;-0.77;-0.01;0.01;-0.64;141;27;7868
31516;-0.77;-0.01;0.01;-0.64;136;24;7864
31536;-0.77;-0.01;0.01;-0.64;134;25;7860
31557;-0.77;-0.01;0.01;-0.64;132;25;7860
31577;-0.77;-0.01;0.01;-0.64;132;28;7860
31599;-0.77;-0.01;0.01;-0.64;134;24;7862
31620;-0.77;-0.01;0.01;-0.64;132;21;7863
31639;-0.77;-0.01;0.01;-0.64;127;20;7851
31666;-0.77;-0.01;0.01;-0.64;134;28;7860
31688;-0.77;-0.01;0.01;-0.64;132;28;7859
31708;-0.77;-0.01;0.01;-0.64;131;24;7862
31727;-0.77;-0.01;0.01;-0.64;133;21;7858
31745;-0.77;-0.01;0.01;-0.64;133;22;7859
31767;-0.77;-0.01;0.01;-0.64;134;24;7854
31788;-0.77;-0.01;0.01;-0.64;140;24;7853
31807;-0.77;-0.01;0.01;-0.64;136;24;7859
31829;-0.77;-0.01;0.01;-0.64;137;21;7859
31851;-0.77;-0.01;0.01;-0.64;137;22;7856
31870;-0.77;-0.01;0.01;-0.64;134;21;7854
31890;-0.77;-0.01;0.01;-0.64;135;22;7851
32916;-0.77;-0.01;0.01;-0.64;136;23;7854
32937;-0.77;-0.01;0.01;-0.64;138;24;7855
32957;-0.77;-0.01;0.01;-0.64;137;21;7846
32975;-0.77;-0.01;0.01;-0.64;138;23;7852
32996;-0.77;-0.01;0.01;-0.64;140;20;7858
33016;-0.77;-0.01;0.01;-0.64;142;17;7851
33036;-0.77;-0.01;0.01;-0.64;137;21;7854
33055;-0.77;-0.01;0.01;-0.64;136;21;7856
33078;-0.77;-0.01;0.01;-0.64;137;18;7860
33099;-0.77;-0.01;0.01;-0.64;136;23;7860
33118;-0.77;-0.01;0.01;-0.64;130;23;7860
33139;-0.77;-0.01;0.01;-0.64;128;21;7856
33164;-0.77;-0.01;0.01;-0.64;132;25;7861
33185;-0.77;-0.01;0.01;-0.64;129;25;7858
33204;-0.77;-0.01;0.01;-0.64;124;24;7856
33225;-0.77;-0.01;0.01;-0.64;127;20;7858
33244;-0.77;-0.01;0.01;-0.64;132;23;7858
33265;-0.77;-0.01;0.01;-0.64;133;21;7857
33284;-0.77;-0.01;0.01;-0.64;131;27;7862
33305;-0.77;-0.01;0.01;-0.64;129;28;7859
33327;-0.77;-0.01;0.01;-0.64;129;29;7862
33347;-0.77;-0.01;0.01;-0.64;130;28;7851
33368;-0.77;-0.01;0.01;-0.64;130;28;7843
33388;-0.77;-0.01;0.01;-0.64;131;26;7843
33406;-0.77;-0.01;0.01;-0.64;134;25;7845
33427;-0.77;-0.01;0.01;-0.64;137;26;7843
33448;-0.77;-0.01;0.01;-0.64;136;25;7847
33468;-0.77;-0.01;0.01;-0.64;140;26;7848
33486;-0.77;-0.01;0.01;-0.64;145;23;7846
33506;-0.77;-0.01;0.01;-0.64;139;22;7844
33527;-0.77;-0.01;0.01;-0.64;138;24;7843
33547;-0.77;-0.01;0.01;-0.64;138;21;7846
33566;-0.77;-0.01;0.01;-0.64;139;22;7850
33583;-0.77;-0.01;0.01;-0.64;136;22;7853
33605;-0.77;-0.01;0.01;-0.64;135;21;7857
33624;-0.77;-0.01;0.01;-0.64;136;24;7859
33644;-0.77;-0.01;0.01;-0.64;-19862;-31917;-31882
33674;-0.77;-0.01;0.01;-0.64;138;23;7853
33696;-0.77;-0.01;0.01;-0.64;136;24;7858
33715;-0.77;-0.01;0.01;-0.64;136;24;7858
33735;-0.77;-0.01;0.01;-0.64;135;21;7856
33754;-0.77;-0.01;0.01;-0.64;133;17;7856
33776;-0.77;-0.01;0.01;-0.64;134;18;7854
33795;-0.77;-0.01;0.01;-0.64;133;18;7859
33817;-0.77;-0.01;0.01;-0.64;129;19;7861
33838;-0.77;-0.01;0.01;-0.64;129;20;7857
33860;-0.77;-0.01;0.01;-0.64;130;20;7851
33878;-0.77;-0.01;0.01;-0.64;133;17;7850
33897;-0.77;-0.01;0.01;-0.64;134;17;7851
33918;-0.77;-0.01;0.01;-0.64;133;14;7853
33939;-0.77;-0.01;0.01;-0.64;138;17;7858
33958;-0.77;-0.01;0.01;-0.64;135;22;7861
33976;-0.77;-0.01;0.01;-0.64;132;21;7853
33998;-0.77;-0.01;0.01;-0.64;135;23;7856
34018;-0.77;-0.01;0.01;-0.64;135;26;7854
34037;-0.77;-0.01;0.01;-0.64;134;28;7855
34056;-0.77;-0.01;0.01;-0.64;135;27;7857
34082;-0.77;-0.01;0.01;-0.64;132;24;7858
34101;-0.77;-0.01;0.01;-0.64;133;23;7865
34121;-0.77;-0.01;0.01;-0.64;132;24;7864
34142;-0.77;-0.01;0.01;-0.64;131;23;7858
34174;-0.77;-0.01;0.01;-0.64;135;27;7858
34193;-0.77;-0.01;0.01;-0.64;133;23;7862
34212;-0.77;-0.01;0.01;-0.64;131;23;7862
34231;-0.77;-0.01;0.01;-0.64;133;24;7861
34253;-0.77;-0.01;0.01;-0.64;133;26;7867
34274;-0.77;-0.01;0.01;-0.64;133;24;7862
34294;-0.77;-0.01;0.01;-0.64;131;27;7859
34337;-0.77;-0.01;0.01;-0.64;131;27;7856
34360;-0.77;-0.01;0.01;-0.64;130;27;7857
34381;-0.77;-0.01;0.01;-0.64;131;27;7856
34401;-0.77;-0.01;0.01;-0.64;133;20;7863
34420;-0.77;-0.01;0.01;-0.64;135;25;7861
34439;-0.77;-0.01;0.01;-0.64;136;25;7859
34461;-0.77;-0.01;0.01;-0.64;134;23;7854
34480;-0.77;-0.01;0.01;-0.64;140;21;7855
34499;-0.77;-0.01;0.01;-0.64;135;23;7859
34519;-0.77;-0.01;0.01;-0.64;136;23;7855
34540;-0.77;-0.01;0.01;-0.64;141;21;7854
34560;-0.77;-0.01;0.01;-0.64;143;22;7849
34579;-0.77;-0.01;0.01;-0.64;145;23;7854
34603;-0.77;-0.01;0.01;-0.64;142;23;7850
34624;-0.06;-1.36;-0.08;0.04;-10524;-1;0
34645;-0.77;-0.01;0.01;-0.64;132;17;7864
34664;-0.77;-0.01;0.01;-0.64;131;21;7856
34684;-0.77;-0.01;0.01;-0.64;131;24;7852
34705;-0.77;-0.01;0.01;-0.64;132;22;7860
34723;-0.77;-0.01;0.01;-0.64;133;22;7855
34742;-0.77;-0.01;0.01;-0.64;139;21;7860
34764;-0.77;-0.01;0.01;-0.64;139;22;7862
34783;-0.77;-0.01;0.01;-0.64;137;21;7864
34802;-0.77;-0.01;0.01;-0.64;135;21;7864
34822;-0.77;-0.01;0.01;-0.64;135;25;7865
34846;-0.77;-0.01;0.01;-0.64;136;26;7860
34865;-0.77;-0.01;0.01;-0.64;133;26;7860
34885;-0.77;-0.01;0.01;-0.64;134;27;7860
34905;-0.77;-0.01;0.01;-0.64;132;27;7857
34925;-0.77;-0.01;0.01;-0.64;132;25;7856
34944;-0.77;-0.01;0.01;-0.64;134;23;7861
34965;-0.77;-0.01;0.01;-0.64;131;22;7861
34984;-0.77;-0.01;0.01;-0.64;128;26;7857
35005;-0.77;-0.01;0.01;-0.64;132;23;7856
35024;-0.77;-0.01;0.01;-0.64;132;22;7853
35044;-0.77;-0.01;0.01;-0.64;136;22;7856
35063;-0.77;-0.01;0.01;-0.64;138;23;7853
35087;-0.77;-0.01;0.01;-0.64;141;24;7848
35107;-0.77;-0.01;0.01;-0.64;143;27;7849
35134;-0.77;-0.01;0.01;-0.64;135;25;7863
35152;-0.77;-0.01;0.01;-0.64;136;18;7867
35173;-0.77;-0.01;0.01;-0.64;135;20;7865
35194;-0.77;-0.01;0.01;-0.64;137;25;7864
35213;-0.77;-0.01;0.01;-0.64;136;24;7866
35232;-0.77;-0.01;0.01;-0.64;135;25;7874
35251;-0.77;-0.01;0.01;-0.64;135;24;7878
35273;-0.77;-0.01;0.01;-0.64;135;28;7873
35292;-0.77;-0.01;0.01;-0.64;137;33;7869
35311;-0.77;-0.01;0.01;-0.64;137;32;7862
35331;-0.77;-0.01;0.01;-0.64;141;31;7864
35356;-0.77;-0.01;0.01;-0.64;142;26;7864
35374;-0.77;-0.01;0.01;-0.64;139;23;7858
35393;-0.77;-0.01;0.01;-0.64;139;29;7854
35414;-0.77;-0.01;0.01;-0.64;137;30;7863
35435;-0.77;-0.01;0.01;-0.64;133;29;7862
35454;-0.77;-0.01;0.01;-0.64;131;28;7857
35473;-0.77;-0.01;0.01;-0.64;134;26;7854
35494;-0.77;-0.01;0.01;-0.64;139;21;7848
35515;-0.77;-0.01;0.01;-0.64;134;22;7850
35533;-0.77;-0.01;0.01;-0.64;129;23;7854
35551;-0.77;-0.01;0.01;-0.64;131;25;7848
35573;-0.77;-0.01;0.01;-0.64;133;26;7851
35596;-0.77;-0.01;0.01;-0.64;135;26;7853
35624;-0.77;-0.01;0.01;-0.64;135;17;7873
35644;-0.77;-0.01;0.01;-0.64;137;21;7873
35665;-0.77;-0.01;0.01;-0.64;142;23;7873
35685;-0.77;-0.01;0.01;-0.64;143;25;7863
35703;-0.77;-0.01;0.01;-0.64;143;27;7858
35723;-0.77;-0.01;0.01;-0.64;140;24;7852
35744;-0.77;-0.01;0.01;-0.64;135;25;7845
35764;-0.77;-0.01;0.01;-0.64;134;28;7853
35783;-0.77;-0.01;0.01;-0.64;132;27;7858
35802;-0.77;-0.01;0.01;-0.64;132;24;7861
35824;-0.77;-0.01;0.01;-0.64;132;30;7859
35846;-0.77;-0.01;0.01;-0.64;129;35;7858
35866;-0.77;-0.01;0.01;-0.64;131;31;7859
35885;-0.77;-0.01;0.01;-0.64;135;28;7860
35906;-0.77;-0.01;0.01;-0.64;136;28;7863
35925;-0.77;-0.01;0.01;-0.64;139;32;7858
35946;-0.77;-0.01;0.01;-0.64;141;31;7860
35965;-0.77;-0.01;0.01;-0.64;141;33;7864
35985;-0.77;-0.01;0.01;-0.64;135;29;7866
36005;-0.77;-0.01;0.01;-0.64;135;28;7861
36024;-0.77;-0.01;0.01;-0.64;133;28;7858
36044;-0.77;-0.01;0.01;-0.64;130;21;7860
36064;-0.77;-0.01;0.01;-0.64;128;22;7860
36088;-0.77;-0.01;0.01;-0.64;130;21;7862
37123;-0.77;-0.01;0.01;-0.64;139;12;7862
37142;-0.77;-0.01;0.01;-0.64;135;11;7859
37162;-0.77;-0.01;0.01;-0.64;137;14;7858
37183;-0.77;-0.01;0.01;-0.64;135;18;7853
37203;-0.77;-0.01;0.01;-0.64;130;23;7848
37222;-0.77;-0.01;0.01;-0.64;131;23;7853
37241;-0.77;-0.01;0.01;-0.64;134;23;7851
37263;-0.77;-0.01;0.01;-0.64;137;21;7849
37282;-0.77;-0.01;0.01;-0.64;135;20;7854
37300;-0.77;-0.01;0.01;-0.64;134;25;7854
37321;-0.77;-0.01;0.01;-0.64;137;27;7856
37345;-0.77;-0.01;0.01;-0.64;136;28;7858
37365;-0.77;-0.01;0.01;-0.64;132;27;7858
37385;-0.77;-0.01;0.01;-0.64;131;28;7854
37430;-0.77;-0.01;0.01;-0.64;134;27;7856
37450;-0.77;-0.01;0.01;-0.64;131;24;7861
37470;-0.77;-0.01;0.01;-0.64;131;24;7862
37489;-0.77;-0.01;0.01;-0.64;131;16;7866
37508;-0.77;-0.01;0.01;-0.64;132;16;7863
37530;-0.77;-0.01;0.01;-0.64;138;17;7864
37549;-0.77;-0.01;0.01;-0.64;139;23;7869
37568;-0.77;-0.01;0.01;-0.64;141;22;7870
37593;-0.77;-0.01;0.01;-0.64;140;28;7857
37615;-0.77;-0.01;0.01;-0.64;137;28;7853
37638;-0.77;-0.01;0.01;-0.64;132;25;7861
37658;-0.77;-0.01;0.01;-0.64;129;22;7862
37683;-0.77;-0.01;0.01;-0.64;126;25;7860
37703;-0.77;-0.01;0.01;-0.64;126;23;7851
37721;-0.77;-0.01;0.01;-0.64;129;25;7844
37741;-0.77;-0.01;0.01;-0.64;130;23;7838
37762;-0.77;-0.01;0.01;-0.64;132;23;7843
37783;-0.77;-0.01;0.01;-0.64;133;24;7847
37801;-0.77;-0.01;0.01;-0.64;136;27;7845
37820;-0.77;-0.01;0.01;-0.64;136;30;7849
37841;-0.77;-0.01;0.01;-0.64;135;30;7850
37863;-0.77;-0.01;0.01;-0.64;135;27;7855
37884;-0.77;-0.01;0.01;-0.64;132;25;7855
37904;-0.77;-0.01;0.01;-0.64;137;26;7860
37925;-0.77;-0.01;0.01;-0.64;135;25;7859
37944;-0.77;-0.01;0.01;-0.64;131;25;7856
37963;-0.77;-0.01;0.01;-0.64;133;22;7852
37983;-0.77;-0.01;0.01;-0.64;131;25;7855
38005;-0.77;-0.01;0.01;-0.64;131;25;7854
38024;-0.77;-0.01;0.01;-0.64;137;26;7863
38043;-0.77;-0.01;0.01;-0.64;142;21;7863
38072;-0.77;-0.01;0.01;-0.64;124;16;7853
38094;-0.77;-0.01;0.01;-0.64;130;18;7853
38113;-0.77;-0.01;0.01;-0.64;130;18;7859
38137;-0.77;-0.01;0.01;-0.64;129;22;7859
38156;-0.77;-0.01;0.01;-0.64;127;21;7856
38177;-0.77;-0.01;0.01;-0.64;129;23;7856
38196;-0.77;-0.01;0.01;-0.64;128;24;7858
38216;-0.77;-0.01;0.01;-0.64;131;28;7856
38236;-0.77;-0.01;0.01;-0.64;135;30;7857
38256;-0.77;-0.01;0.01;-0.64;133;28;7855
38276;-0.77;-0.01;0.01;-0.64;130;30;7862
38296;-0.77;-0.01;0.01;-0.64;130;29;7869
38315;-0.77;-0.01;0.01;-0.64;127;32;7867
38336;-0.77;-0.01;0.01;-0.64;127;30;7872
38355;-0.77;-0.01;0.01;-0.64;131;32;7870
38380;-0.77;-0.01;0.01;-0.64;129;32;7866
38398;-0.77;-0.01;0.01;-0.64;125;29;7860
38419;-0.77;-0.01;0.01;-0.64;130;26;7864
38439;-0.77;-0.01;0.01;-0.64;128;25;7865
38460;-0.77;-0.01;0.01;-0.64;129;25;7865
38478;-0.77;-0.01;0.01;-0.64;132;28;7869
38497;-0.77;-0.01;0.01;-0.64;132;26;7868
38519;-0.77;-0.01;0.01;-0.64;132;30;7869
38538;-0.77;-0.01;0.01;-0.64;136;29;7863
38563;-0.77;-0.01;0.01;-0.64;136;19;7865
38582;-0.77;-0.01;0.01;-0.64;138;18;7862
38604;-0.77;-0.01;0.01;-0.64;139;21;7861
38626;-0.77;-0.01;0.01;-0.64;145;23;7862
38645;-0.77;-0.01;0.01;-0.64;147;23;7864
38666;-0.77;-0.01;0.01;-0.64;143;24;7861
38688;-0.77;-0.01;0.01;-0.64;142;23;7857
38706;-0.77;-0.01;0.01;-0.64;142;24;7853
38725;-0.77;-0.01;0.01;-0.64;141;23;7848
38746;-0.77;-0.01;0.01;-0.64;139;23;7853
38767;-0.77;-0.01;0.01;-0.64;141;22;7856
38786;-0.77;-0.01;0.01;-0.64;140;22;7848
38805;-0.77;-0.01;0.01;-0.64;138;23;7842
38826;-0.77;-0.01;0.01;-0.64;136;22;7847
38847;-0.77;-0.01;0.01;-0.64;135;22;7855
38865;-0.77;-0.01;0.01;-0.64;140;19;7856
38889;-0.77;-0.01;0.01;-0.64;146;22;7854
38909;-0.77;-0.01;0.01;-0.64;140;23;7855
38929;-0.77;-0.01;0.01;-0.64;139;21;7855
38948;-0.77;-0.01;0.01;-0.64;137;19;7853
38967;-0.77;-0.01;0.01;-0.64;133;22;7859
38989;-0.77;-0.01;0.01;-0.64;136;25;7860
39008;-0.77;-0.01;0.01;-0.64;138;21;7858
39027;-0.77;-0.01;0.01;-0.64;137;23;7853
39052;-0.77;-0.01;0.01;-0.64;144;28;7853
39073;-0.77;-0.01;0.01;-0.64;144;26;7853
39093;-0.77;-0.01;0.01;-0.64;141;24;7852
39112;-0.77;-0.01;0.01;-0.64;142;23;7858
39135;-0.77;-0.01;0.01;-0.64;135;22;7858
39156;-0.77;-0.01;0.01;-0.64;135;20;7850
39175;-0.77;-0.01;0.01;-0.64;131;20;7857
39196;-0.77;-0.01;0.01;-0.64;128;22;7855
39215;-0.77;-0.01;0.01;-0.64;129;21;7852
39236;-0.77;-0.01;0.01;-0.64;133;18;7848
39255;-0.77;-0.01;0.01;-0.64;132;21;7850
39276;-0.77;-0.01;0.01;-0.64;133;20;7853
39295;-0.77;-0.01;0.01;-0.64;135;20;7853
39315;-0.77;-0.01;0.01;-0.64;140;18;7852
39335;-0.77;-0.01;0.01;-0.64;142;17;7850
39355;-0.77;-0.01;0.01;-0.64;138;20;7850
39377;-0.77;-0.01;0.01;-0.64;137;19;7853
39398;-0.77;-0.01;0.01;-0.64;136;20;7856
39419;-0.77;-0.01;0.01;-0.64;138;25;7855
39439;-0.77;-0.01;0.01;-0.64;135;24;7852
39458;-0.77;-0.01;0.01;-0.64;142;23;7851
39479;-0.77;-0.01;0.01;-0.64;142;22;7852
39532;-0.77;-0.01;0.01;-0.64;136;23;7854
39551;-0.77;-0.01;0.01;-0.64;139;21;7855
39571;-0.77;-0.01;0.01;-0.64;136;25;7859
39591;-0.77;-0.01;0.01;-0.64;132;25;7857
39611;-0.77;-0.01;0.01;-0.64;135;25;7854
39630;-0.77;-0.01;0.01;-0.64;136;25;7856
39653;-0.77;-0.01;0.01;-0.64;133;27;7856
39673;-0.77;-0.01;0.01;-0.64;133;25;7853
39693;-0.77;-0.01;0.01;-0.64;138;24;7856
39714;-0.77;-0.01;0.01;-0.64;141;22;7865
39732;-0.77;-0.01;0.01;-0.64;145;19;7871
39752;-0.77;-0.01;0.01;-0.64;143;18;7865
39773;-0.77;-0.01;0.01;-0.64;145;17;7860
39793;-0.77;-0.01;0.01;-0.64;146;14;7858
39811;-0.77;-0.01;0.01;-0.64;144;18;7857
39832;-0.77;-0.01;0.01;-0.64;146;22;7858
39852;-0.77;-0.01;0.01;-0.64;141;24;7861
39873;-0.77;-0.01;0.01;-0.64;136;23;7861
39893;-0.77;-0.01;0.01;-0.64;134;22;7865
39915;-0.77;-0.01;0.01;-0.64;132;24;7868
39936;-0.77;-0.01;0.01;-0.64;135;21;7868
39955;-0.77;-0.01;0.01;-0.64;137;20;7868
39973;-0.77;-0.01;0.01;-0.64;133;21;7868
39995;-0.77;-0.01;0.01;-0.64;134;21;7857
40022;-0.77;-0.01;0.01;-0.64;132;24;7863
40041;-0.77;-0.01;0.01;-0.64;137;29;7858
40059;-0.77;-0.01;0.01;-0.64;144;29;7859
40081;-0.77;-0.01;0.01;-0.64;150;26;7860
40101;-0.77;-0.01;0.01;-0.64;145;28;7859
40122;-0.77;-0.01;0.01;-0.64;144;26;7856
40145;-0.77;-0.01;0.01;-0.64;140;22;7858
40173;-0.77;-0.01;0.01;-0.64;140;24;7853
40191;-0.77;-0.01;0.01;-0.64;141;27;7861
40210;-0.77;-0.01;0.01;-0.64;141;31;7867
40229;-0.77;-0.01;0.01;-0.64;139;32;7861
40251;-0.77;-0.01;0.01;-0.64;137;34;7866
40270;-0.77;-0.01;0.01;-0.64;137;34;7863
40288;-0.77;-0.01;0.01;-0.64;137;34;7863
40309;-0.77;-0.01;0.01;-0.64;138;30;7864
40330;-0.77;-0.01;0.01;-0.64;137;31;7858
41351;-0.77;-0.01;0.01;-0.64;133;21;7861
41370;-0.77;-0.01;0.01;-0.64;134;23;7862
41390;-0.77;-0.01;0.01;-0.64;131;21;7857
41414;-0.77;-0.01;0.01;-0.64;131;24;7857
41433;-0.77;-0.01;0.01;-0.64;133;27;7850
41454;-0.77;-0.01;0.01;-0.64;132;25;7847
41473;-0.77;-0.01;0.01;-0.64;132;24;7853
41494;-0.77;-0.01;0.01;-0.64;135;22;7852
41521;-0.77;-0.01;0.01;-0.64;133;17;7851
41542;-0.77;-0.01;0.01;-0.64;130;21;7852
41561;-0.77;-0.01;0.01;-0.64;132;22;7844
41581;-0.77;-0.01;0.01;-0.64;132;24;7846
41601;-0.77;-0.01;0.01;-0.64;131;20;7850
41621;-0.77;-0.01;0.01;-0.64;133;20;7855
41640;-0.77;-0.01;0.01;-0.64;137;16;7862
41672;-0.77;-0.01;0.01;-0.64;138;15;7867
41692;-0.77;-0.01;0.01;-0.64;136;15;7868
41714;-0.77;-0.01;0.01;-0.64;131;19;7870
41733;-0.77;-0.01;0.01;-0.64;125;20;7869
41752;-0.77;-0.01;0.01;-0.64;130;22;7863
41772;-0.77;-0.01;0.01;-0.64;130;27;7857
41793;-0.77;-0.01;0.01;-0.64;126;32;7854
41812;-0.77;-0.01;0.01;-0.64;128;30;7852
41832;-0.77;-0.01;0.01;-0.64;129;26;7853
41851;-0.77;-0.01;0.01;-0.64;133;27;7860
41873;-0.77;-0.01;0.01;-0.64;133;23;7862
41892;-0.77;-0.01;0.01;-0.64;137;22;7861
41915;-0.77;-0.01;0.01;-0.64;137;24;7861
41935;-0.77;-0.01;0.01;-0.64;131;26;7862
41954;-0.77;-0.01;0.01;-0.64;129;28;7862
41974;-0.77;-0.01;0.01;-0.64;129;25;7860
42002;-0.77;-0.01;0.01;-0.64;129;20;7873
42021;-0.77;-0.01;0.01;-0.64;134;20;7867
42042;-0.77;-0.01;0.01;-0.64;131;23;7862
42061;-0.77;-0.01;0.01;-0.64;132;21;7860
42080;-0.77;-0.01;0.01;-0.64;132;25;7859
42101;-0.77;-0.01;0.01;-0.64;135;22;7856
42120;-0.77;-0.01;0.01;-0.64;134;24;7858
42140;-0.77;-0.01;0.01;-0.64;135;24;7859
42164;-0.77;-0.01;0.01;-0.64;134;26;7857
42183;-0.77;-0.01;0.01;-0.64;136;24;7858
42202;-0.77;-0.01;0.01;-0.64;135;24;7863
42224;-0.77;-0.01;0.01;-0.64;134;26;7863
42243;-0.77;-0.01;0.01;-0.64;132;28;7864
42262;-0.77;-0.01;0.01;-0.64;132;26;7866
42282;-0.77;-0.01;0.01;-0.64;131;24;7870
42304;-0.77;-0.01;0.01;-0.64;127;25;7867
42323;-0.77;-0.01;0.01;-0.64;134;24;7873
42342;-0.77;-0.01;0.01;-0.64;140;26;7864
42361;-0.77;-0.01;0.01;-0.64;137;22;7861
42383;-0.77;-0.01;0.01;-0.64;134;23;7857
42405;-0.77;-0.01;0.01;-0.64;135;23;7852
42423;-0.77;-0.01;0.01;-0.64;138;24;7855
42445;-0.77;-0.01;0.01;-0.64;138;24;7857
42465;-0.77;-0.01;0.01;-0.64;138;24;7855
42491;-0.77;-0.01;0.01;-0.64;133;24;7862
42509;-0.77;-0.01;0.01;-0.64;131;19;7859
42531;-0.77;-0.01;0.01;-0.64;133;21;7860
42551;-0.77;-0.01;0.01;-0.64;134;21;7861
42571;-0.77;-0.01;0.01;-0.64;135;21;7857
42591;-0.77;-0.01;0.01;-0.64;139;17;7861
42640;-0.77;-0.01;0.01;-0.64;140;14;7867
42659;-0.77;-0.01;0.01;-0.64;140;16;7867
42677;-0.77;-0.01;0.01;-0.64;141;16;7860
42700;-0.77;-0.01;0.01;-0.64;139;16;7858
42721;-0.77;-0.01;0.01;-0.64;139;15;7866
42741;-0.77;-0.01;0.01;-0.64;137;21;7868
42759;-0.77;-0.01;0.01;-0.64;135;26;7863
42780;-0.77;-0.01;0.01;-0.64;131;26;7865
42800;-0.77;-0.01;0.01;-0.64;135;28;7869
42821;-0.77;-0.01;0.01;-0.64;137;28;7870
42839;-0.77;-0.01;0.01;-0.64;138;27;7868
42859;-0.77;-0.01;0.01;-0.64;142;23;7865
42880;-0.77;-0.01;0.01;-0.64;141;20;7860
42900;-0.77;-0.01;0.01;-0.64;141;18;7853
42918;-0.77;-0.01;0.01;-0.64;140;17;7854
42951;-0.77;-0.01;0.01;-0.64;135;24;7861
42971;-0.77;-0.01;0.01;-0.64;135;24;7862
42991;-0.77;-0.01;0.01;-0.64;137;25;7858
43010;-0.77;-0.01;0.01;-0.64;137;27;7856
43031;-0.77;-0.01;0.01;-0.64;137;27;7858
43050;-0.77;-0.01;0.01;-0.64;138;24;7857
43071;-0.77;-0.01;0.01;-0.64;138;23;7857
43090;-0.77;-0.01;0.01;-0.64;139;23;7855
43110;-0.77;-0.01;0.01;-0.64;139;22;7852
43130;-0.77;-0.01;0.01;-0.64;139;20;7848
43149;-0.77;-0.01;0.01;-0.64;136;18;7849
43170;-0.77;-0.01;0.01;-0.64;134;17;7855
43192;-0.77;-0.01;0.01;-0.64;136;22;7858
43212;-0.77;-0.01;0.01;-0.64;134;26;7859
43233;-0.77;-0.01;0.01;-0.64;135;27;7858
43253;-0.77;-0.01;0.01;-0.64;139;27;7857
43272;-0.77;-0.01;0.01;-0.64;138;23;7863
43292;-0.77;-0.01;0.01;-0.64;138;20;7861
43313;-0.77;-0.01;0.01;-0.64;139;26;7856
43333;-0.77;-0.01;0.01;-0.64;135;22;7864
43351;-0.77;-0.01;0.01;-0.64;134;24;7867
43372;-0.77;-0.01;0.01;-0.64;130;24;7869
43392;-0.77;-0.01;0.01;-0.64;135;24;7864
43413;-0.77;-0.01;0.01;-0.64;139;27;7855
43441;-0.77;-0.01;0.01;-0.64;137;24;7852
43462;-0.77;-0.01;0.01;-0.64;140;23;7849
43483;-0.77;-0.01;0.01;-0.64;137;25;7851
43502;-0.77;-0.01;0.01;-0.64;134;28;7857
43520;-0.77;-0.01;0.01;-0.64;134;27;7855
43542;-0.77;-0.01;0.01;-0.64;135;28;7857
43563;-0.77;-0.01;0.01;-0.64;136;28;7855
43583;-0.77;-0.01;0.01;-0.64;135;25;7851
43602;-0.77;-0.01;0.01;-0.64;131;24;7852
43630;-0.77;-0.01;0.01;-0.64;132;25;7855
43649;-0.77;-0.01;0.01;-0.64;132;24;7857
43669;-0.77;-0.01;0.01;-0.64;131;23;7851
43691;-0.77;-0.01;0.01;-0.64;132;23;7852
43713;-0.77;-0.01;0.01;-0.64;134;25;7862
43732;-0.77;-0.01;0.01;-0.64;137;23;7857
43751;-0.77;-0.01;0.01;-0.64;134;23;7857
43771;-0.77;-0.01;0.01;-0.64;133;21;7861
43792;-0.77;-0.01;0.01;-0.64;137;22;7860
43812;-0.77;-0.01;0.01;-0.64;145;21;7861
43830;-0.77;-0.01;0.01;-0.64;144;22;7861
43850;-0.77;-0.01;0.01;-0.64;140;25;7860
43871;-0.77;-0.01;0.01;-0.64;138;28;7857
43891;-0.77;-0.01;0.01;-0.64;135;27;7856
43920;-0.77;-0.01;0.01;-0.64;127;21;7852
43940;-0.77;-0.01;0.01;-0.64;130;22;7853
43964;-0.77;-0.01;0.01;-0.64;134;23;7860
43983;-0.77;-0.01;0.01;-0.64;136;20;7866
44004;-0.77;-0.01;0.01;-0.64;135;21;7861
44023;-0.77;-0.01;0.01;-0.64;132;20;7861
44043;-0.77;-0.01;0.01;-0.64;134;19;7863
44063;-0.77;-0.01;0.01;-0.64;135;16;7865
44083;-0.77;-0.01;0.01;-0.64;130;21;7861
44103;-0.77;-0.01;0.01;-0.64;133;21;7854
44123;-0.77;-0.01;0.01;-0.64;134;20;7854
44143;-0.77;-0.01;0.01;-0.64;134;17;7857
44162;-0.77;-0.01;0.01;-0.64;134;16;7863
44183;-0.77;-0.01;0.01;-0.64;131;18;7863
44205;-0.77;-0.01;0.01;-0.64;133;21;7871
44227;-0.77;-0.01;0.01;-0.64;134;20;7867
44246;-0.77;-0.01;0.01;-0.64;138;24;7865
44265;-0.77;-0.01;0.01;-0.64;137;24;7860
44285;-0.77;-0.01;0.01;-0.64;133;23;7858
44306;-0.77;-0.01;0.01;-0.64;132;23;7862
44326;-0.77;-0.01;0.01;-0.64;137;23;7867
44344;-0.77;-0.01;0.01;-0.64;140;20;7863
44364;-0.77;-0.01;0.01;-0.64;149;22;7859
44385;-0.77;-0.01;0.01;-0.64;146;24;7856
44410;-0.77;-0.01;0.01;-0.64;131;29;7852
44428;-0.77;-0.01;0.01;-0.64;131;33;7854
44453;-0.77;-0.01;0.01;-0.64;134;31;7859
44474;-0.77;-0.01;0.01;-0.64;136;28;7859
44493;-0.77;-0.01;0.01;-0.64;134;25;7864
44511;-0.77;-0.01;0.01;-0.64;132;25;7860
44533;-0.77;-0.01;0.01;-0.64;133;21;7860
44553;-0.77;-0.01;0.01;-0.64;127;18;7860
45579;-0.77;-0.01;0.01;-0.64;132;20;7857
45598;-0.77;-0.01;0.01;-0.64;138;16;7856
45619;-0.77;-0.01;0.01;-0.64;138;17;7855
45641;-0.77;-0.01;0.01;-0.64;137;22;7854
45660;-0.77;-0.01;0.01;-0.64;139;23;7850
45680;-0.77;-0.01;0.01;-0.64;141;22;7853
45725;-0.77;-0.01;0.01;-0.64;141;22;7849
45745;-0.77;-0.01;0.01;-0.64;140;23;7853
45764;-0.77;-0.01;0.01;-0.64;142;20;7855
45783;-0.77;-0.01;0.01;-0.64;144;21;7849
45803;-0.77;-0.01;0.01;-0.64;141;24;7849
45823;-0.77;-0.01;0.01;-0.64;141;27;7852
45843;-0.77;-0.01;0.01;-0.64;138;24;7854
45862;-0.77;-0.01;0.01;-0.64;136;26;7859
45890;-0.77;-0.01;0.01;-0.64;138;23;7864
45909;-0.77;-0.01;0.01;-0.64;138;24;7865
45929;-0.77;-0.01;0.01;-0.64;139;19;7861
45949;-0.77;-0.01;0.01;-0.64;135;14;7847
45972;-0.77;-0.01;0.01;-0.64;137;16;7848
45992;-0.77;-0.01;0.01;-0.64;136;20;7844
46013;-0.77;-0.01;0.01;-0.64;140;22;7851
46031;-0.77;-0.01;0.01;-0.64;139;24;7847
46050;-0.77;-0.01;0.01;-0.64;138;22;7848
46072;-0.77;-0.01;0.01;-0.64;138;17;7849
46091;-0.77;-0.01;0.01;-0.64;138;13;7845
46110;-0.77;-0.01;0.01;-0.64;137;14;7847
46130;-0.77;-0.01;0.01;-0.64;139;13;7849
46151;-0.77;-0.01;0.01;-0.64;137;14;7852
46170;-0.77;-0.01;0.01;-0.64;136;15;7851
46189;-0.77;-0.01;0.01;-0.64;138;18;7847
46209;-0.77;-0.01;0.01;-0.64;139;18;7849
46234;-0.77;-0.01;0.01;-0.64;136;19;7847
46252;-0.77;-0.01;0.01;-0.64;137;22;7845
46272;-0.77;-0.01;0.01;-0.64;141;21;7849
46292;-0.77;-0.01;0.01;-0.64;143;19;7844
46314;-0.77;-0.01;0.01;-0.64;142;22;7842
46332;-0.77;-0.01;0.01;-0.64;134;26;7847
46351;-0.77;-0.01;0.01;-0.64;128;26;7850
46379;-0.77;-0.01;0.01;-0.64;135;22;7858
46401;-0.77;-0.01;0.01;-0.64;138;21;7858
46419;-0.77;-0.01;0.01;-0.64;135;21;7855
46438;-0.77;-0.01;0.01;-0.64;131;18;7856
46459;-0.77;-0.01;0.01;-0.64;130;20;7860
46483;-0.77;-0.01;0.01;-0.64;128;22;7858
46501;-0.77;-0.01;0.01;-0.64;127;20;7856
46520;-0.77;-0.01;0.01;-0.64;125;21;7851
46542;-0.77;-0.01;0.01;-0.64;128;26;7850
46561;-0.77;-0.01;0.01;-0.64;128;26;7851
46580;-0.77;-0.01;0.01;-0.64;130;21;7856
46600;-0.77;-0.01;0.01;-0.64;131;22;7859
46621;-0.77;-0.01;0.01;-0.64;137;22;7854
46640;-0.77;-0.01;0.01;-0.64;138;21;7853
46659;-0.77;-0.01;0.01;-0.64;136;22;7858
46679;-0.77;-0.01;0.01;-0.64;138;24;7859
46700;-0.77;-0.01;0.01;-0.64;140;19;7862
46722;-0.77;-0.01;0.01;-0.64;139;20;7863
46743;-0.77;-0.01;0.01;-0.64;138;21;7858
46762;-0.77;-0.01;0.01;-0.64;139;24;7855
46782;-0.77;-0.01;0.01;-0.64;132;22;7850
46802;-0.77;-0.01;0.01;-0.64;129;22;7851
46822;-0.77;-0.01;0.01;-0.64;132;21;7851
46841;-0.77;-0.01;0.01;-0.64;134;23;7850
46869;-0.77;-0.01;0.01;-0.64;137;27;7839
46889;-0.77;-0.01;0.01;-0.64;138;23;7840
46909;-0.77;-0.01;0.01;-0.64;139;21;7840
46928;-0.77;-0.01;0.01;-0.64;134;19;7843
46949;-0.77;-0.01;0.01;-0.64;134;22;7840
46972;-0.77;-0.01;0.01;-0.64;140;22;7838
46992;-0.77;-0.01;0.01;-0.64;141;22;7841
47010;-0.77;-0.01;0.01;-0.64;143;19;7848
47030;-0.77;-0.01;0.01;-0.64;140;20;7852
47052;-0.77;-0.01;0.01;-0.64;138;22;7853
47072;-0.77;-0.01;0.01;-0.64;140;22;7850
47092;-0.77;-0.01;0.01;-0.64;139;20;7851
47116;-0.77;-0.01;0.01;-0.64;142;21;7851
47136;-0.77;-0.01;0.01;-0.64;140;21;7852
47156;-0.77;-0.01;0.01;-0.64;138;21;7854
47175;-0.77;-0.01;0.01;-0.64;134;20;7851
47194;-0.77;-0.01;0.01;-0.64;129;23;7849
47220;-0.77;-0.01;0.01;-0.64;130;26;7852
47238;-0.77;-0.01;0.01;-0.64;136;29;7866
47257;-0.77;-0.01;0.01;-0.64;136;29;7864
47278;-0.77;-0.01;0.01;-0.64;134;32;7862
47299;-0.77;-0.01;0.01;-0.64;136;33;7860
47317;-0.77;-0.01;0.01;-0.64;136;33;7857
47336;-0.77;-0.01;0.01;-0.64;131;26;7861
47359;-0.77;-0.01;0.01;-0.64;127;22;7855
47380;-0.77;-0.01;0.01;-0.64;132;28;7860
47399;-0.77;-0.01;0.01;-0.64;140;27;7859
47418;-0.77;-0.01;0.01;-0.64;138;30;7851
47439;-0.77;-0.01;0.01;-0.64;142;27;7852
47463;-0.77;-0.01;0.01;-0.64;145;24;7855
47481;-0.77;-0.01;0.01;-0.64;145;26;7852
47500;-0.77;-0.01;0.01;-0.64;144;24;7849
47522;-0.77;-0.01;0.01;-0.64;145;26;7854
47541;-0.77;-0.01;0.01;-0.64;143;24;7860
47560;-0.77;-0.01;0.01;-0.64;142;23;7860
47580;-0.77;-0.01;0.01;-0.64;140;23;7859
47601;-0.77;-0.01;0.01;-0.64;138;22;7855
47620;-0.77;-0.01;0.01;-0.64;140;21;7850
47639;-0.77;-0.01;0.01;-0.64;139;20;7848
47659;-0.77;-0.01;0.01;-0.64;136;23;7849
47681;-0.77;-0.01;0.01;-0.64;137;24;7845
47701;-0.77;-0.01;0.01;-0.64;136;23;7847
47754;-0.77;-0.01;0.01;-0.64;136;26;7854
47773;-0.77;-0.01;0.01;-0.64;139;23;7854
47793;-0.77;-0.01;0.01;-0.64;142;23;7854
47819;-0.77;-0.01;0.01;-0.64;130;25;7864
47838;-0.77;-0.01;0.01;-0.64;128;22;7860
47859;-0.77;-0.01;0.01;-0.64;133;21;7855
47878;-0.77;-0.01;0.01;-0.64;127;23;7848
47899;-0.77;-0.01;0.01;-0.64;132;21;7845
47918;-0.77;-0.01;0.01;-0.64;134;19;7839
47939;-0.77;-0.01;0.01;-0.64;129;20;7843
47958;-0.77;-0.01;0.01;-0.64;131;24;7849
47979;-0.77;-0.01;0.01;-0.64;137;23;7857
48002;-0.77;-0.01;0.01;-0.64;144;26;7859
48021;-0.77;-0.01;0.01;-0.64;141;26;7855
48041;-0.77;-0.01;0.01;-0.64;140;26;7859
48063;-0.77;-0.01;0.01;-0.64;139;26;7858
48082;-0.77;-0.01;0.01;-0.64;143;26;7863
48101;-0.77;-0.01;0.01;-0.64;138;23;7864
48121;-0.77;-0.01;0.01;-0.64;134;23;7863
48143;-0.77;-0.01;0.01;-0.64;132;25;7868
48162;-0.77;-0.01;0.01;-0.64;131;22;7866
48180;-0.77;-0.01;0.01;-0.64;128;18;7859
48201;-0.77;-0.01;0.01;-0.64;132;20;7859
48222;-0.77;-0.01;0.01;-0.64;132;25;7863
48245;-0.77;-0.01;0.01;-0.64;130;24;7866
48263;-0.77;-0.01;0.01;-0.64;133;22;7862
48285;-0.77;-0.01;0.01;-0.64;137;20;7858
48308;-0.77;-0.01;0.01;-0.64;137;28;7860
48327;-0.77;-0.01;0.01;-0.64;139;28;7862
48345;-0.77;-0.01;0.01;-0.64;134;27;7863
48367;-0.77;-0.01;0.01;-0.64;133;28;7856
48388;-0.77;-0.01;0.01;-0.64;136;30;7850
48407;-0.77;-0.01;0.01;-0.64;137;30;7853
48425;-0.77;-0.01;0.01;-0.64;141;28;7848
48447;-0.77;-0.01;0.01;-0.64;144;25;7847
48468;-0.77;-0.01;0.01;-0.64;144;24;7856
48490;-0.77;-0.01;0.01;-0.64;141;22;7855
48510;-0.77;-0.01;0.01;-0.64;144;17;7852
48531;-0.77;-0.01;0.01;-0.64;145;18;7852
48551;-0.77;-0.01;0.01;-0.64;137;23;7845
48570;-0.77;-0.01;0.01;-0.64;137;21;7844
48590;-0.77;-0.01;0.01;-0.64;133;19;7847
48610;-0.77;-0.01;0.01;-0.64;132;19;7853
48631;-0.77;-0.01;0.01;-0.64;132;17;7854
48649;-0.77;-0.01;0.01;-0.64;138;17;7861
48669;-0.77;-0.01;0.01;-0.64;141;20;7867
48690;-0.77;-0.01;0.01;-0.64;138;21;7861
48711;-0.77;-0.01;0.01;-0.64;135;22;7857
48733;-0.77;-0.01;0.01;-0.64;137;26;7856
48753;-0.77;-0.01;0.01;-0.64;139;26;7858
48773;-0.77;-0.01;0.01;-0.64;136;27;7851
49809;-0.77;-0.01;0.01;-0.64;130;22;7864
49828;-0.77;-0.01;0.01;-0.64;138;23;7863
49848;-0.77;-0.01;0.01;-0.64;139;23;7867
49868;-0.77;-0.01;0.01;-0.64;135;24;7869
49888;-0.77;-0.01;0.01;-0.64;136;24;7867
49908;-0.77;-0.01;0.01;-0.64;134;22;7866
49927;-0.77;-0.01;0.01;-0.64;131;22;7865
49948;-0.77;-0.01;0.01;-0.64;135;19;7868
49967;-0.77;-0.01;0.01;-0.64;138;22;7864
49988;-0.77;-0.01;0.01;-0.64;138;24;7864
50010;-0.77;-0.01;0.01;-0.64;132;21;7860
50031;-0.77;-0.01;0.01;-0.64;139;20;7862
50052;-0.77;-0.01;0.01;-0.64;135;22;7863
50072;-0.77;-0.01;0.01;-0.64;138;25;7865
50090;-0.77;-0.01;0.01;-0.64;138;24;7858
50111;-0.77;-0.01;0.01;-0.64;136;25;7856
50132;-0.77;-0.01;0.01;-0.64;137;23;7856
50152;-0.77;-0.01;0.01;-0.64;141;23;7849
50170;-0.77;-0.01;0.01;-0.64;142;25;7849
50191;-0.77;-0.01;0.01;-0.64;142;19;7852
50212;-0.77;-0.01;0.01;-0.64;135;19;7855
50231;-0.77;-0.01;0.01;-0.64;138;22;7859
50253;-0.77;-0.01;0.01;-0.64;140;25;7858
50274;-0.77;-0.01;0.01;-0.64;142;24;7859
50298;-0.77;-0.01;0.01;-0.64;138;21;7862
50316;-0.77;-0.01;0.01;-0.64;137;26;7864
50335;-0.77;-0.01;0.01;-0.64;132;25;7859
50356;-0.77;-0.01;0.01;-0.64;132;25;7853
50378;-0.77;-0.01;0.01;-0.64;138;25;7855
50396;-0.77;-0.01;0.01;-0.64;139;25;7853
50415;-0.77;-0.01;0.01;-0.64;138;25;7850
50436;-0.77;-0.01;0.01;-0.64;138;23;7852
50458;-0.77;-0.01;0.01;-0.64;135;23;7859
50476;-0.77;-0.01;0.01;-0.64;132;22;7861
50499;-0.77;-0.01;0.01;-0.64;134;19;7862
50520;-0.77;-0.01;0.01;-0.64;137;20;7858
50540;-0.77;-0.01;0.01;-0.64;136;20;7852
50560;-0.77;-0.01;0.01;-0.64;136;22;7855
50582;-0.77;-0.01;0.01;-0.64;137;25;7862
50606;-0.77;-0.01;0.01;-0.64;134;23;7862
50626;-0.77;-0.01;0.01;-0.64;132;21;7863
50644;-0.77;-0.01;0.01;-0.64;136;21;7861
50664;-0.77;-0.01;0.01;-0.64;134;20;7855
50685;-0.77;-0.01;0.01;-0.64;131;20;7855
50705;-0.77;-0.01;0.01;-0.64;132;22;7858
50723;-0.77;-0.01;0.01;-0.64;133;24;7856
50748;-0.77;-0.01;0.01;-0.64;138;19;7859
50777;-0.77;-0.01;0.01;-0.64;132;27;7850
50798;-0.77;-0.01;0.01;-0.64;135;28;7859
50842;-0.77;-0.01;0.01;-0.64;135;23;7859
50860;-0.77;-0.01;0.01;-0.64;134;26;7863
50881;-0.77;-0.01;0.01;-0.64;137;29;7864
50901;-0.77;-0.01;0.01;-0.64;130;31;7866
50921;-0.77;-0.01;0.01;-0.64;131;35;7863
50940;-0.77;-0.01;0.01;-0.64;132;30;7861
50960;-0.77;-0.01;0.01;-0.64;135;31;7862
50981;-0.77;-0.01;0.01;-0.64;141;24;7858
51000;-0.77;-0.01;0.01;-0.64;145;25;7850
51022;-0.77;-0.01;0.01;-0.64;147;24;7851
51044;-0.77;-0.01;0.01;-0.64;144;27;7847
51064;-0.77;-0.01;0.01;-0.64;141;25;7858
51082;-0.77;-0.01;0.01;-0.64;138;21;7854
51101;-0.77;-0.01;0.01;-0.64;135;26;7849
51122;-0.77;-0.01;0.01;-0.64;133;23;7852
51143;-0.77;-0.01;0.01;-0.64;132;25;7848
51162;-0.77;-0.01;0.01;-0.64;133;25;7847
51181;-0.77;-0.01;0.01;-0.64;135;21;7850
51202;-0.77;-0.01;0.01;-0.64;139;22;7850
51223;-0.77;-0.01;0.01;-0.64;137;20;7847
51247;-0.77;-0.01;0.01;-0.64;135;23;7857
51266;-0.77;-0.01;0.01;-0.64;131;21;7860
51291;-0.77;-0.01;0.01;-0.64;133;23;7864
51311;-0.77;-0.01;0.01;-0.64;132;25;7861
51330;-0.77;-0.01;0.01;-0.64;129;27;7857
51350;-0.77;-0.01;0.01;-0.64;130;26;7857
51371;-0.77;-0.01;0.01;-0.64;136;25;7855
51391;-0.77;-0.01;0.01;-0.64;139;27;7852
51409;-0.77;-0.01;0.01;-0.64;140;23;7853
51430;-0.77;-0.01;0.01;-0.64;143;21;7853
51450;-0.77;-0.01;0.01;-0.64;141;22;7853
51469;-0.77;-0.01;0.01;-0.64;141;23;7858
51489;-0.77;-0.01;0.01;-0.64;138;24;7861
51508;-0.77;-0.01;0.01;-0.64;137;26;7859
51532;-0.77;-0.01;0.01;-0.64;136;22;7861
51552;-0.77;-0.01;0.01;-0.64;135;26;7862
51572;-0.77;-0.01;0.01;-0.64;134;29;7861
51591;-0.77;-0.01;0.01;-0.64;134;28;7858
51612;-0.77;-0.01;0.01;-0.64;133;26;7854
51631;-0.77;-0.01;0.01;-0.64;135;25;7850
51652;-0.77;-0.01;0.01;-0.64;133;22;7847
51671;-0.77;-0.01;0.01;-0.64;134;22;7851
51691;-0.77;-0.01;0.01;-0.64;134;20;7857
51711;-0.77;-0.01;0.01;-0.64;134;21;7857
51737;-0.77;-0.01;0.01;-0.64;141;22;7863
51757;-0.77;-0.01;0.01;-0.64;136;22;7864
51780;-0.77;-0.01;0.01;-0.64;141;20;7869
51800;-0.77;-0.01;0.01;-0.64;142;18;7870
51821;-0.77;-0.01;0.01;-0.64;138;16;7869
51839;-0.77;-0.01;0.01;-0.64;140;20;7861
51859;-0.77;-0.01;0.01;-0.64;136;23;7863
51880;-0.77;-0.01;0.01;-0.64;135;23;7865
51900;-0.77;-0.01;0.01;-0.64;140;25;7866
51918;-0.77;-0.01;0.01;-0.64;139;22;7863
51938;-0.77;-0.01;0.01;-0.64;140;20;7859
51959;-0.77;-0.01;0.01;-0.64;143;26;7862
51979;-0.77;-0.01;0.01;-0.64;141;21;7859
51998;-0.77;-0.01;0.01;-0.64;138;18;7860
52021;-0.77;-0.01;0.01;-0.64;140;20;7864
52043;-0.77;-0.01;0.01;-0.64;142;21;7860
52061;-0.77;-0.01;0.01;-0.64;142;20;7854
52080;-0.77;-0.01;0.01;-0.64;137;18;7857
52101;-0.77;-0.01;0.01;-0.64;141;17;7864
52122;-0.77;-0.01;0.01;-0.64;141;19;7861
52140;-0.77;-0.01;0.01;-0.64;143;21;7866
52159;-0.77;-0.01;0.01;-0.64;142;23;7864
52180;-0.77;-0.01;0.01;-0.64;142;24;7864
52202;-0.77;-0.01;0.01;-0.64;140;23;7863
52227;-0.77;-0.01;0.01;-0.64;145;23;7854
52246;-0.77;-0.01;0.01;-0.64;146;20;7854
52271;-0.77;-0.01;0.01;-0.64;144;18;7852
52291;-0.77;-0.01;0.01;-0.64;145;22;7854
52309;-0.77;-0.01;0.01;-0.64;141;25;7853
52329;-0.77;-0.01;0.01;-0.64;140;29;7854
52350;-0.77;-0.01;0.01;-0.64;142;37;7858
52370;-0.77;-0.01;0.01;-0.64;137;28;7865
52388;-0.77;-0.01;0.01;-0.64;135;28;7867
52408;-0.77;-0.01;0.01;-0.64;136;27;7864
52430;-0.77;-0.01;0.01;-0.64;132;29;7863
52449;-0.77;-0.01;0.01;-0.64;132;31;7861
52468;-0.77;-0.01;0.01;-0.64;131;33;7858
52487;-0.77;-0.01;0.01;-0.64;131;31;7858
52509;-0.77;-0.01;0.01;-0.64;135;32;7865
52531;-0.77;-0.01;0.01;-0.64;140;30;7864
52551;-0.77;-0.01;0.01;-0.64;142;28;7858
52571;-0.77;-0.01;0.01;-0.64;140;26;7862
52591;-0.77;-0.01;0.01;-0.64;140;27;7866
52610;-0.77;-0.01;0.01;-0.64;141;24;7871
52631;-0.77;-0.01;0.01;-0.64;139;21;7865
52650;-0.77;-0.01;0.01;-0.64;134;20;7862
52670;-0.77;-0.01;0.01;-0.64;132;17;7857
52690;-0.77;-0.01;0.01;-0.64;132;17;7858
52717;-0.77;-0.01;0.01;-0.64;140;17;7858
52736;-0.77;-0.01;0.01;-0.64;141;22;7852
52757;-0.77;-0.01;0.01;-0.64;138;24;7854
52780;-0.77;-0.01;0.01;-0.64;139;26;7856
52800;-0.77;-0.01;0.01;-0.64;143;26;7855
52820;-0.77;-0.01;0.01;-0.64;139;21;7854
52842;-0.77;-0.01;0.01;-0.64;141;18;7863
52886;-0.77;-0.01;0.01;-0.64;140;21;7866
52904;-0.77;-0.01;0.01;-0.64;137;20;7866
52923;-0.77;-0.01;0.01;-0.64;138;21;7872
52944;-0.77;-0.01;0.01;-0.64;136;23;7861
52966;-0.77;-0.01;0.01;-0.64;135;26;7858
52984;-0.77;-0.01;0.01;-0.64;135;26;7860
53002;-0.77;-0.01;0.01;-0.64;136;25;7861
54025;-0.77;-0.01;0.01;-0.64;138;28;7849
54050;-0.77;-0.01;0.01;-0.64;138;29;7846
54069;-0.77;-0.01;0.01;-0.64;138;27;7849
54091;-0.77;-0.01;0.01;-0.64;137;29;7858
54117;-0.77;-0.01;0.01;-0.64;132;31;7859
54135;-0.77;-0.01;0.01;-0.64;134;29;7856
54153;-0.77;-0.01;0.01;-0.64;134;25;7859
54174;-0.77;-0.01;0.01;-0.64;133;23;7867
54196;-0.77;-0.01;0.01;-0.64;133;22;7840
54216;-0.77;-0.01;0.01;-0.64;135;21;7847
54234;-0.77;-0.01;0.01;-0.64;133;23;7849
54255;-0.77;-0.01;0.01;-0.64;137;22;7852
54275;-0.77;-0.01;0.01;-0.64;141;22;7855
54298;-0.77;-0.01;0.01;-0.64;140;21;7853
54318;-0.77;-0.01;0.01;-0.64;138;22;7854
54338;-0.77;-0.01;0.01;-0.64;141;25;7852
54358;-0.77;-0.01;0.01;-0.64;137;23;7844
54378;-0.77;-0.01;0.01;-0.64;136;23;7838
54398;-0.77;-0.01;0.01;-0.64;140;25;7841
54418;-0.77;-0.01;0.01;-0.64;138;24;7848
54438;-0.77;-0.01;0.01;-0.64;135;23;7849
54458;-0.77;-0.01;0.01;-0.64;135;22;7849
54478;-0.77;-0.01;0.01;-0.64;133;22;7853
54497;-0.77;-0.01;0.01;-0.64;128;21;7851
54518;-0.77;-0.01;0.01;-0.64;127;23;7850
54541;-0.77;-0.01;0.01;-0.64;125;22;7848
54562;-0.77;-0.01;0.01;-0.64;130;21;7849
54580;-0.77;-0.01;0.01;-0.64;125;18;7853
54601;-0.77;-0.01;0.01;-0.64;127;15;7858
54621;-0.77;-0.01;0.01;-0.64;132;16;7859
54642;-0.77;-0.01;0.01;-0.64;129;16;7863
54660;-0.77;-0.01;0.01;-0.64;132;23;7855
54686;-0.77;-0.01;0.01;-0.64;137;23;7853
54707;-0.77;-0.01;0.01;-0.64;135;22;7854
54727;-0.77;-0.01;0.01;-0.64;134;22;7860
54745;-0.77;-0.01;0.01;-0.64;134;24;7862
54766;-0.77;-0.01;0.01;-0.64;131;22;7861
54790;-0.77;-0.01;0.01;-0.64;132;20;7862
54810;-0.77;-0.01;0.01;-0.64;133;20;7860
54828;-0.77;-0.01;0.01;-0.64;136;17;7857
54850;-0.77;-0.01;0.01;-0.64;138;19;7854
54870;-0.77;-0.01;0.01;-0.64;140;20;7852
54889;-0.77;-0.01;0.01;-0.64;136;24;7859
54908;-0.77;-0.01;0.01;-0.64;134;23;7859
54930;-0.77;-0.01;0.01;-0.64;129;25;7861
54950;-0.77;-0.01;0.01;-0.64;134;22;7859
54968;-0.77;-0.01;0.01;-0.64;137;24;7865
54987;-0.77;-0.01;0.01;-0.64;138;25;7863
55008;-0.77;-0.01;0.01;-0.64;134;29;7856
55030;-0.77;-0.01;0.01;-0.64;135;28;7855
55051;-0.77;-0.01;0.01;-0.64;137;27;7852
55071;-0.77;-0.01;0.01;-0.64;134;23;7847
55092;-0.77;-0.01;0.01;-0.64;131;24;7844
55113;-0.77;-0.01;0.01;-0.64;130;27;7846
55131;-0.77;-0.01;0.01;-0.64;130;24;7850
55151;-0.77;-0.01;0.01;-0.64;134;24;7856
55175;-0.77;-0.01;0.01;-0.64;139;15;7852
55196;-0.77;-0.01;0.01;-0.64;138;15;7852
55214;-0.77;-0.01;0.01;-0.64;141;17;7856
55234;-0.77;-0.01;0.01;-0.64;145;20;7857
55255;-0.77;-0.01;0.01;-0.64;145;25;7856
55275;-0.77;-0.01;0.01;-0.64;144;24;7858
55298;-0.77;-0.01;0.01;-0.64;137;23;7863
55318;-0.77;-0.01;0.01;-0.64;137;19;7864
55338;-0.77;-0.01;0.01;-0.64;140;18;7862
55358;-0.77;-0.01;0.01;-0.64;139;18;7856
55378;-0.77;-0.01;0.01;-0.64;138;21;7850
55398;-0.77;-0.01;0.01;-0.64;138;21;7844
55418;-0.77;-0.01;0.01;-0.64;134;18;7837
55437;-0.77;-0.01;0.01;-0.64;135;19;7843
55458;-0.77;-0.01;0.01;-0.64;139;24;7855
55477;-0.77;-0.01;0.01;-0.64;137;25;7852
55497;-0.77;-0.01;0.01;-0.64;134;24;7852
55517;-0.77;-0.01;0.01;-0.64;132;23;7856
55541;-0.77;-0.01;0.01;-0.64;131;23;7852
55559;-0.77;-0.01;0.01;-0.64;130;22;7850
55580;-0.77;-0.01;0.01;-0.64;130;20;7855
55601;-0.77;-0.01;0.01;-0.64;129;22;7854
55621;-0.77;-0.01;0.01;-0.64;129;22;7859
55639;-0.77;-0.01;0.01;-0.64;128;27;7862
55665;-0.77;-0.01;0.01;-0.64;136;24;7845
55686;-0.77;-0.01;0.01;-0.64;135;25;7847
55706;-0.77;-0.01;0.01;-0.64;135;24;7839
55724;-0.77;-0.01;0.01;-0.64;136;23;7844
55745;-0.77;-0.01;0.01;-0.64;139;26;7848
55765;-0.77;-0.01;0.01;-0.64;140;26;7850
55788;-0.77;-0.01;0.01;-0.64;138;25;7858
55806;-0.77;-0.01;0.01;-0.64;138;31;7861
55828;-0.77;-0.01;0.01;-0.64;135;25;7861
55849;-0.77;-0.01;0.01;-0.64;134;22;7859
55869;-0.77;-0.01;0.01;-0.64;134;25;7856
55888;-0.77;-0.01;0.01;-0.64;129;27;7859
55934;-0.77;-0.01;0.01;-0.64;132;24;7855
55954;-0.77;-0.01;0.01;-0.64;136;24;7859
55973;-0.77;-0.01;0.01;-0.64;139;21;7859
55991;-0.77;-0.01;0.01;-0.64;139;25;7865
56012;-0.77;-0.01;0.01;-0.64;137;23;7864
56033;-0.77;-0.01;0.01;-0.64;134;21;7864
56056;-0.77;-0.01;0.01;-0.64;135;20;7865
56074;-0.77;-0.01;0.01;-0.64;134;17;7862
56096;-0.77;-0.01;0.01;-0.64;134;19;7859
56125;-0.77;-0.01;0.01;-0.64;137;26;7864
56143;-0.77;-0.01;0.01;-0.64;134;27;7865
56162;-0.77;-0.01;0.01;-0.64;131;25;7861
56183;-0.77;-0.01;0.01;-0.64;139;22;7858
56204;-0.77;-0.01;0.01;-0.64;137;22;7852
56223;-0.77;-0.01;0.01;-0.64;136;22;7849
56241;-0.77;-0.01;0.01;-0.64;140;20;7848
56263;-0.77;-0.01;0.01;-0.64;143;16;7852
56283;-0.77;-0.01;0.01;-0.64;146;16;7849
56302;-0.77;-0.01;0.01;-0.64;150;19;7850
56325;-0.77;-0.01;0.01;-0.64;143;21;7852
56346;-0.77;-0.01;0.01;-0.64;133;23;7853
56366;-0.77;-0.01;0.01;-0.64;130;23;7855
56385;-0.77;-0.01;0.01;-0.64;127;22;7854
56404;-0.77;-0.01;0.01;-0.64;128;22;7856
56426;-0.77;-0.01;0.01;-0.64;135;19;7857
56445;-0.77;-0.01;0.01;-0.64;132;17;7864
56464;-0.77;-0.01;0.01;-0.64;138;20;7856
56484;-0.77;-0.01;0.01;-0.64;137;21;7855
56504;-0.77;-0.01;0.01;-0.64;136;23;7851
56525;-0.77;-0.01;0.01;-0.64;134;23;7846
56544;-0.77;-0.01;0.01;-0.64;135;23;7852
56569;-0.77;-0.01;0.01;-0.64;133;23;7855
56594;-0.77;-0.01;-0.06;0.75;-111;91;-10541
56615;-0.77;-0.01;0.01;-0.64;135;21;7854
56635;-0.77;-0.01;0.01;-0.64;135;22;7858
56655;-0.77;-0.01;0.01;-0.64;135;26;7849
56674;-0.77;-0.01;0.01;-0.64;137;29;7844
56694;-0.77;-0.01;0.01;-0.64;137;29;7850
56714;-0.77;-0.01;0.01;-0.64;139;25;7854
56734;-0.77;-0.01;0.01;-0.64;138;25;7851
56754;-0.77;-0.01;0.01;-0.64;137;25;7849
56774;-0.77;-0.01;0.01;-0.64;136;26;7851
56794;-0.77;-0.01;0.01;-0.64;135;25;7853
56816;-0.77;-0.01;0.01;-0.64;134;23;7863
56836;-0.77;-0.01;0.01;-0.64;131;20;7871
56858;-0.77;-0.01;0.01;-0.64;137;22;7866
56877;-0.77;-0.01;0.01;-0.64;139;20;7860
56896;-0.77;-0.01;0.01;-0.64;136;18;7856
56916;-0.77;-0.01;0.01;-0.64;134;20;7861
56937;-0.77;-0.01;0.01;-0.64;137;24;7859
56957;-0.77;-0.01;0.01;-0.64;146;24;7855
56976;-0.77;-0.01;0.01;-0.64;145;22;7852
56995;-0.77;-0.01;0.01;-0.64;142;18;7856
57016;-0.77;-0.01;0.01;-0.64;144;20;7859
57036;-0.77;-0.01;0.01;-0.64;145;22;7865
57057;-0.77;-0.01;0.01;-0.64;143;20;7864
57079;-0.77;-0.01;0.01;-0.64;137;22;7867
57105;-0.77;-0.01;0.01;-0.64;143;23;7862
57123;-0.77;-0.01;0.01;-0.64;139;19;7862
57141;-0.77;-0.01;0.01;-0.64;137;22;7864
57163;-0.77;-0.01;0.01;-0.64;138;23;7868
57183;-0.77;-0.01;0.01;-0.64;134;20;7865
57203;-0.77;-0.01;0.01;-0.64;137;21;7859
58224;-0.77;-0.01;0.01;-0.64;136;21;7863
58245;-0.77;-0.01;0.01;-0.64;132;19;7864
58267;-0.77;-0.01;0.01;-0.64;130;20;7861
58285;-0.77;-0.01;0.01;-0.64;131;21;7858
58308;-0.77;-0.01;0.01;-0.64;131;19;7860
58329;-0.77;-0.01;0.01;-0.64;138;24;7850
58349;-0.77;-0.01;0.01;-0.64;138;27;7847
58367;-0.77;-0.01;0.01;-0.64;137;25;7848
58388;-0.77;-0.01;0.01;-0.64;133;23;7849
58408;-0.77;-0.01;0.01;-0.64;137;23;7854
58429;-0.77;-0.01;0.01;-0.64;134;25;7852
58447;-0.77;-0.01;0.01;-0.64;132;24;7855
58466;-0.77;-0.01;0.01;-0.64;130;24;7849
58488;-0.77;-0.01;0.01;-0.64;129;28;7855
58507;-0.77;-0.01;0.01;-0.64;130;25;7853
58526;-0.77;-0.01;0.01;-0.64;129;28;7849
58546;-0.77;-0.01;0.01;-0.64;129;26;7852
58565;-0.77;-0.01;0.01;-0.64;131;25;7853
58585;-0.77;-0.01;0.01;-0.64;130;23;7845
58604;0.11;-1.79;1.16;1.74;-10541;-1;0
58633;-0.77;-0.01;0.01;-0.64;129;19;7857
58655;-0.77;-0.01;0.01;-0.64;131;21;7859
58674;-0.77;-0.01;0.01;-0.64;130;24;7854
58693;-0.77;-0.01;0.01;-0.64;131;28;7845
58713;-0.77;-0.01;0.01;-0.64;142;25;7855
58735;-0.77;-0.01;0.01;-0.64;138;25;7854
58754;-0.77;-0.01;0.01;-0.64;138;21;7858
58773;-0.77;-0.01;0.01;-0.64;135;21;7860
58792;-0.77;-0.01;0.01;-0.64;136;23;7856
58817;-0.77;-0.01;0.01;-0.64;131;25;7850
58836;-0.77;-0.01;0.01;-0.64;131;24;7846
58857;-0.77;-0.01;0.01;-0.64;132;25;7848
58876;-0.77;-0.01;0.01;-0.64;134;26;7855
58898;-0.77;-0.01;0.01;-0.64;139;28;7860
58918;-0.77;-0.01;0.01;-0.64;142;21;7854
58963;-0.77;-0.01;0.01;-0.64;138;19;7853
58982;-0.77;-0.01;0.01;-0.64;138;17;7849
59002;-0.77;-0.01;0.01;-0.64;131;15;7847
59023;-0.77;-0.01;0.01;-0.64;129;16;7852
59041;-0.77;-0.01;0.01;-0.64;133;18;7859
59061;-0.77;-0.01;0.01;-0.64;127;19;7862
59093;-0.77;-0.01;0.01;-0.64;139;26;7854
59114;-0.77;-0.01;0.01;-0.64;138;25;7859
59133;-0.77;-0.01;0.01;-0.64;138;30;7862
59154;-0.77;-0.01;0.01;-0.64;138;27;7857
59173;-0.77;-0.01;0.01;-0.64;132;30;7857
59194;-0.77;-0.01;0.01;-0.64;127;27;7858
59213;-0.77;-0.01;0.01;-0.64;131;30;7856
59233;-0.77;-0.01;0.01;-0.64;130;23;7854
59253;-0.77;-0.01;0.01;-0.64;130;24;7861
59273;-0.77;-0.01;0.01;-0.64;127;28;7858
59293;-0.77;-0.01;0.01;-0.64;125;30;7856
59313;-0.77;-0.01;0.01;-0.64;123;31;7856
59336;-0.77;-0.01;0.01;-0.64;122;32;7857
59357;-0.77;-0.01;0.01;-0.64;128;32;7854
59377;-0.77;-0.01;0.01;-0.64;130;30;7854
59395;-0.77;-0.01;0.01;-0.64;127;28;7845
59416;-0.77;-0.01;0.01;-0.64;121;28;7850
59437;-0.77;-0.01;0.01;-0.64;123;23;7853
59457;-0.77;-0.01;0.01;-0.64;125;23;7851
59475;-0.77;-0.01;0.01;-0.64;122;22;7854
59496;-0.77;-0.01;0.01;-0.64;125;24;7851
59516;-0.77;-0.01;0.01;-0.64;128;28;7855
59537;-0.77;-0.01;0.01;-0.64;129;28;7855
59555;-0.77;-0.01;0.01;-0.64;135;30;7850
59584;-0.77;-0.01;0.01;-0.64;134;19;7856
59604;-0.77;-0.01;0.01;-0.64;136;20;7853
59624;-0.77;-0.01;0.01;-0.64;138;26;7852
59642;-0.77;-0.01;0.01;-0.64;138;30;7856
59664;-0.77;-0.01;0.01;-0.64;136;28;7856
59684;-0.77;-0.01;0.01;-0.64;137;28;7855
59702;-0.77;-0.01;0.01;-0.64;138;30;7853
59722;-0.77;-0.01;0.01;-0.64;137;28;7865
59743;-0.77;-0.01;0.01;-0.64;137;27;7862
59764;-0.77;-0.01;0.01;-0.64;137;32;7860
59782;-0.77;-0.01;0.01;-0.64;140;31;7857
59801;-0.77;-0.01;0.01;-0.64;141;27;7857
59822;-0.77;-0.01;0.01;-0.64;137;21;7851
59842;-0.77;-0.01;0.01;-0.64;133;25;7856
59860;-0.77;-0.01;0.01;-0.64;132;28;7853
59879;-0.77;-0.01;0.01;-0.64;133;28;7853
59900;-0.77;-0.01;0.01;-0.64;137;31;7852
59922;-0.77;-0.01;0.01;-0.64;134;25;7848
59940;-0.77;-0.01;0.01;-0.64;135;22;7852
59958;-0.77;-0.01;0.01;-0.64;137;24;7859
59980;-0.77;-0.01;0.01;-0.64;139;26;7853
60000;-0.77;-0.01;0.01;-0.64;140;26;7848
60021;-0.77;-0.01;0.01;-0.64;142;24;7849
60040;-0.77;-0.01;0.01;-0.64;136;23;7850
60073;-0.77;-0.01;0.01;-0.64;130;24;7857
60096;-0.77;-0.01;0.01;-0.64;130;25;7848
60115;-0.77;-0.01;0.01;-0.64;132;22;7853
60135;-0.77;-0.01;0.01;-0.64;134;20;7862
60156;-0.77;-0.01;0.01;-0.64;132;21;7862
60176;-0.77;-0.01;0.01;-0.64;135;22;7866
60194;-0.77;-0.01;0.01;-0.64;140;16;7864
60214;-0.77;-0.01;0.01;-0.64;143;19;7857
60236;-0.77;-0.01;0.01;-0.64;150;19;7856
60255;-0.77;-0.01;0.01;-0.64;149;18;7857
60274;-0.77;-0.01;0.01;-0.64;144;18;7852
60294;-0.77;-0.01;0.01;-0.64;137;26;7856
60316;-0.77;-0.01;0.01;-0.64;137;25;7859
60338;-0.77;-0.01;0.01;-0.64;136;25;7853
60358;-0.77;-0.01;0.01;-0.64;137;22;7854
60378;-0.77;-0.01;0.01;-0.64;139;23;7850
60398;-0.77;-0.01;0.01;-0.64;139;21;7841
60418;-0.77;-0.01;0.01;-0.64;140;22;7845
60438;-0.77;-0.01;0.01;-0.64;138;20;7853
60458;-0.77;-0.01;0.01;-0.64;137;21;7857
60478;-0.77;-0.01;0.01;-0.64;136;25;7857
60498;-0.77;-0.01;0.01;-0.64;131;26;7858
60518;-0.77;-0.01;0.01;-0.64;136;28;7859
60538;-0.77;-0.01;0.01;-0.64;135;27;7859
60564;-0.77;-0.01;0.01;-0.64;144;21;7862
60587;-0.77;-0.01;0.01;-0.64;141;21;7868
60607;-0.77;-0.01;0.01;-0.64;142;23;7866
60626;-0.77;-0.01;0.01;-0.64;143;24;7871
60646;-0.77;-0.01;0.01;-0.64;141;24;7869
60667;-0.77;-0.01;0.01;-0.64;139;21;7864
60687;-0.77;-0.01;0.01;-0.64;138;20;7856
60705;-0.77;-0.01;0.01;-0.64;141;22;7857
60725;-0.77;-0.01;0.01;-0.64;142;23;7853
60746;-0.77;-0.01;0.01;-0.64;140;18;7850
60766;-0.77;-0.01;0.01;-0.64;140;19;7845
60785;-0.77;-0.01;0.01;-0.64;138;25;7841
60805;-0.77;-0.01;0.01;-0.64;137;27;7854
60830;-0.77;-0.01;0.01;-0.64;142;26;7859
60848;-0.77;-0.01;0.01;-0.64;140;25;7858
60867;-0.77;-0.01;0.01;-0.64;138;22;7864
60888;-0.77;-0.01;0.01;-0.64;142;22;7864
60909;-0.77;-0.01;0.01;-0.64;137;27;7860
60929;-0.77;-0.01;0.01;-0.64;136;29;7860
60949;-0.77;-0.01;0.01;-0.64;136;30;7858
61013;-0.77;-0.01;0.01;-0.64;141;16;7859
61033;-0.77;-0.01;0.01;-0.64;141;16;7855
61052;-0.77;-0.01;0.01;-0.64;137;18;7860
61071;-0.77;-0.01;0.01;-0.64;139;21;7855
61091;-0.77;-0.01;0.01;-0.64;140;22;7852
61115;-0.77;-0.01;0.01;-0.64;139;24;7850
61134;-0.77;-0.01;0.01;-0.64;143;25;7852
61153;-0.77;-0.01;0.01;-0.64;140;24;7852
61175;-0.77;-0.01;0.01;-0.64;137;21;7860
61194;-0.77;-0.01;0.01;-0.64;133;23;7860
61213;-0.77;-0.01;0.01;-0.64;135;21;7861
61233;-0.77;-0.01;0.01;-0.64;138;25;7868
61254;-0.77;-0.01;0.01;-0.64;140;27;7864
61273;-0.77;-0.01;0.01;-0.64;135;29;7863
61293;-0.77;-0.01;0.01;-0.64;130;30;7856
61312;-0.77;-0.01;0.01;-0.64;135;26;7853
61334;-0.77;-0.01;0.01;-0.64;135;27;7859
61353;-0.77;-0.01;0.01;-0.64;137;30;7859
61376;-0.77;-0.01;0.01;-0.64;139;27;7859
61395;-0.77;-0.01;0.01;-0.64;143;27;7857
61416;-0.77;-0.01;0.01;-0.64;143;28;7856
61435;-0.77;-0.01;0.01;-0.64;140;28;7857
62463;-0.77;-0.01;0.01;-0.64;145;21;7847
62483;-0.77;-0.01;0.01;-0.64;139;21;7847
62512;-0.77;-0.01;0.01;-0.64;129;18;7849
62532;-0.77;-0.01;0.01;-0.64;127;16;7854
62552;-0.77;-0.01;0.01;-0.64;132;20;7854
62572;-0.77;-0.01;0.01;-0.64;132;24;7854
62591;-0.77;-0.01;0.01;-0.64;130;26;7854
62612;-0.77;-0.01;0.01;-0.64;128;30;7856
62635;-0.77;-0.01;0.01;-0.64;128;25;7857
62654;-0.77;-0.01;0.01;-0.64;121;19;7854
62674;-0.77;-0.01;0.01;-0.64;124;19;7856
62695;-0.77;-0.01;0.01;-0.64;130;20;7852
62714;-0.77;-0.01;0.01;-0.64;133;22;7856
62733;-0.77;-0.01;0.01;-0.64;132;20;7853
62753;-0.77;-0.01;0.01;-0.64;133;24;7855
62774;-0.77;-0.01;0.01;-0.64;134;24;7853
62794;-0.77;-0.01;0.01;-0.64;133;23;7856
62812;-0.77;-0.01;0.01;-0.64;132;28;7857
62833;-0.77;-0.01;0.01;-0.64;131;24;7853
62853;-0.77;-0.01;0.01;-0.64;133;20;7852
62885;-0.77;-0.01;0.01;-0.64;134;24;7857
62904;-0.77;-0.01;0.01;-0.64;133;22;7859
62925;-0.77;-0.01;0.01;-0.64;130;24;7863
62944;-0.77;-0.01;0.01;-0.64;137;23;7857
62963;-0.77;-0.01;0.01;-0.64;140;26;7857
62993;-0.77;-0.01;0.01;-0.64;141;15;7850
63013;-0.77;-0.01;0.01;-0.64;142;14;7847
63035;-0.77;-0.01;0.01;-0.64;141;22;7849
63053;-0.77;-0.01;0.01;-0.64;140;20;7853
63071;-0.77;-0.01;0.01;-0.64;145;20;7858
63093;-0.77;-0.01;0.01;-0.64;144;20;7857
63113;-0.77;-0.01;0.01;-0.64;138;23;7862
63135;-0.77;-0.01;0.01;-0.64;135;20;7861
63155;-0.77;-0.01;0.01;-0.64;135;20;7861
63176;-0.77;-0.01;0.01;-0.64;138;25;7858
63196;-0.77;-0.01;0.01;-0.64;136;24;7855
63215;-0.77;-0.01;0.01;-0.64;135;26;7862
63234;-0.77;-0.01;0.01;-0.64;140;26;7863
63256;-0.77;-0.01;0.01;-0.64;139;28;7862
63275;-0.77;-0.01;0.01;-0.64;143;27;7855
63294;-0.77;-0.01;0.01;-0.64;139;25;7852
63314;-0.77;-0.01;0.01;-0.64;141;24;7852
63335;-0.77;-0.01;0.01;-0.64;139;21;7856
63354;-0.77;-0.01;0.01;-0.64;138;20;7859
63378;-0.77;-0.01;0.01;-0.64;137;23;7855
63397;-0.77;-0.01;0.01;-0.64;136;24;7856
63416;-0.77;-0.01;0.01;-0.64;135;24;7851
63437;-0.77;-0.01;0.01;-0.64;135;26;7857
63457;-0.77;-0.01;0.01;-0.64;138;22;7856
63482;-0.77;-0.01;0.01;-0.64;139;28;7848
63507;-0.77;-0.01;0.01;-0.64;142;27;7845
63525;-0.77;-0.01;0.01;-0.64;144;27;7845
63544;-0.77;-0.01;0.01;-0.64;142;25;7843
63565;-0.77;-0.01;0.01;-0.64;143;27;7848
63584;-0.77;-0.01;0.01;-0.64;139;24;7848
63604;-0.77;-0.01;0.01;-0.64;141;26;7854
63624;-0.77;-0.01;0.01;-0.64;139;26;7855
63647;-0.77;-0.01;0.01;-0.64;137;25;7858
63666;-0.77;-0.01;0.01;-0.64;135;27;7852
63688;-0.77;-0.01;0.01;-0.64;137;24;7855
63707;-0.77;-0.01;0.01;-0.64;135;22;7857
63726;-0.77;-0.01;0.01;-0.64;136;17;7853
63746;-0.77;-0.01;0.01;-0.64;134;18;7848
63768;-0.77;-0.01;0.01;-0.64;128;21;7848
63787;-0.77;-0.01;0.01;-0.64;131;23;7858
63806;-0.77;-0.01;0.01;-0.64;133;23;7852
63825;-0.77;-0.01;0.01;-0.64;131;23;7854
63847;-0.77;-0.01;0.01;-0.64;129;23;7852
63866;-0.77;-0.01;0.01;-0.64;131;23;7855
63888;-0.77;-0.01;0.01;-0.64;131;26;7851
63909;-0.77;-0.01;0.01;-0.64;133;25;7857
63931;-0.77;-0.01;0.01;-0.64;135;22;7860
63950;-0.77;-0.01;0.01;-0.64;6155;-17645;27343
63972;-0.77;-0.01;0.01;-0.64;128;26;7858
64028;-0.77;-0.01;0.01;-0.64;130;29;7860
64048;-0.77;-0.01;0.01;-0.64;133;30;7864
64067;-0.77;-0.01;0.01;-0.64;140;27;7857
64085;-0.77;-0.01;0.01;-0.64;142;21;7856
64107;-0.77;-0.01;0.01;-0.64;135;24;7864
64128;-0.77;-0.01;0.01;-0.64;133;21;7866
64147;-0.77;-0.01;0.01;-0.64;134;19;7863
64169;-0.77;-0.01;0.01;-0.64;135;23;7855
64191;-0.77;-0.01;0.01;-0.64;132;25;7863
64210;-0.77;-0.01;0.01;-0.64;134;23;7871
64230;-0.77;-0.01;0.01;-0.64;135;24;7870
64249;-0.77;-0.01;0.01;-0.64;136;20;7869
64271;-0.77;-0.01;0.01;-0.64;137;23;7864
64290;-0.77;-0.01;0.01;-0.64;138;24;7862
64309;-0.77;-0.01;0.01;-0.64;140;28;7853
64329;-0.77;-0.01;0.01;-0.64;133;29;7855
64350;-0.77;-0.01;0.01;-0.64;135;32;7854
64370;-0.77;-0.01;0.01;-0.64;133;37;7852
64389;-0.77;-0.01;0.01;-0.64;135;31;7854
64422;-0.77;-0.01;0.01;-0.64;142;22;7851
64442;-0.77;-0.01;0.01;-0.64;143;23;7859
64462;-0.77;-0.01;0.01;-0.64;140;23;7861
64481;-0.77;-0.01;0.01;-0.64;145;21;7854
64502;-0.77;-0.01;0.01;-0.64;145;23;7852
64521;-0.77;-0.01;0.01;-0.64;143;21;7855
64542;-0.77;-0.01;0.01;-0.64;144;25;7862
64561;-0.77;-0.01;0.01;-0.64;148;27;7864
64582;-0.77;-0.01;0.01;-0.64;147;26;7861
64601;-0.77;-0.01;0.01;-0.64;143;21;7861
64622;-0.77;-0.01;0.01;-0.64;141;24;7858
64641;-0.77;-0.01;0.01;-0.64;140;26;7854
64664;-0.77;-0.01;0.01;-0.64;133;29;7860
64684;-0.77;-0.01;0.01;-0.64;128;28;7863
64706;-0.77;-0.01;0.01;-0.64;129;27;7862
64725;-0.77;-0.01;0.01;-0.64;133;27;7862
64744;-0.77;-0.01;0.01;-0.64;134;23;7861
64764;-0.77;-0.01;0.01;-0.64;134;25;7863
64786;-0.77;-0.01;0.01;-0.64;136;24;7867
64805;-0.77;-0.01;0.01;-0.64;138;26;7866
64823;-0.77;-0.01;0.01;-0.64;134;27;7862
64844;-0.77;-0.01;0.01;-0.64;138;22;7861
64865;-0.77;-0.01;0.01;-0.64;141;22;7861
64885;-0.77;-0.01;0.01;-0.64;139;23;7860
64912;-0.77;-0.01;0.01;-0.64;139;18;7854
64933;-0.77;-0.01;0.01;-0.64;140;19;7854
64955;-0.77;-0.01;0.01;-0.64;138;21;7855
64973;-0.77;-0.01;0.01;-0.64;140;25;7857
64991;-0.77;-0.01;0.01;-0.64;139;27;7862
65013;-0.77;-0.01;0.01;-0.64;139;28;7867
65034;-0.77;-0.01;0.01;-0.64;136;31;7864
65053;-0.77;-0.01;0.01;-0.64;139;28;7861
65071;-0.77;-0.01;0.01;-0.64;141;27;7860
65093;-0.77;-0.01;0.01;-0.64;139;22;7860
65114;-0.77;-0.01;0.01;-0.64;139;23;7857
65133;-0.77;-0.01;0.01;-0.64;139;22;7858
65151;-0.77;-0.01;0.01;-0.64;142;23;7862
65177;-0.77;-0.01;0.01;-0.64;138;28;7864
65196;-0.77;-0.01;0.01;-0.64;141;29;7865
65216;-0.77;-0.01;0.01;-0.64;145;32;7855
65235;-0.77;-0.01;0.01;-0.64;142;32;7857
65257;-0.77;-0.01;0.01;-0.64;137;26;7853
65277;-0.77;-0.01;0.01;-0.64;136;23;7848
65296;-0.77;-0.01;0.01;-0.64;134;20;7851
65315;-0.77;-0.01;0.01;-0.64;137;23;7855
65336;-0.77;-0.01;0.01;-0.64;137;29;7863
65357;-0.77;-0.01;0.01;-0.64;139;26;7866
65375;-0.77;-0.01;0.01;-0.64;138;21;7861
65401;-0.77;-0.01;0.01;-0.64;144;11;7857
65425;-0.77;-0.01;0.01;-0.64;146;17;7859
65445;-0.77;-0.01;0.01;-0.64;147;20;7861
65466;-0.77;-0.01;0.01;-0.64;143;22;7862
65485;-0.77;-0.01;0.01;-0.64;144;25;7856
65504;-0.77;-0.01;0.01;-0.64;145;26;7855
65525;-0.77;-0.01;0.01;-0.64;145;25;7855
65545;-0.77;-0.01;0.01;-0.64;144;23;7856
65565;-0.77;-0.01;0.01;-0.64;143;22;7844
65585;-0.77;-0.01;0.01;-0.64;137;22;7836
65605;-0.77;-0.01;0.01;-0.64;134;22;7843
65625;-0.77;-0.01;0.01;-0.64;138;19;7843
65645;-0.77;-0.01;0.01;-0.64;136;17;7847
65667;-0.77;-0.01;0.01;-0.64;135;17;7849
66690;-0.77;-0.01;0.01;-0.64;145;23;7851
66710;-0.77;-0.01;0.01;-0.64;144;21;7858
66729;-0.77;-0.01;0.01;-0.64;143;19;7856
66749;-0.77;-0.01;0.01;-0.64;142;22;7855
66770;-0.77;-0.01;0.01;-0.64;141;22;7859
66790;-0.77;-0.01;0.01;-0.64;138;24;7858
66808;-0.77;-0.01;0.01;-0.64;138;22;7864
66828;-0.77;-0.01;0.01;-0.64;133;18;7862
66850;-0.77;-0.01;0.01;-0.64;135;17;7856
66869;-0.77;-0.01;0.01;-0.64;133;18;7856
66888;-0.77;-0.01;0.01;-0.64;137;19;7854
66921;-0.77;-0.01;0.01;-0.64;143;15;7861
66941;-0.77;-0.01;0.01;-0.64;143;22;7859
66963;-0.77;-0.01;0.01;-0.64;138;26;7858
67012;-0.77;-0.01;0.01;-0.64;140;29;7856
67036;-0.77;-0.01;0.01;-0.64;138;30;7859
67055;-0.77;-0.01;0.01;-0.64;139;33;7857
67073;-0.77;-0.01;0.01;-0.64;137;33;7860
67093;-0.77;-0.01;0.01;-0.64;135;27;7858
67114;-0.77;-0.01;0.01;-0.64;135;25;7860
67134;-0.77;-0.01;0.01;-0.64;132;25;7857
67152;-0.77;-0.01;0.01;-0.64;129;25;7858
67173;-0.77;-0.01;0.01;-0.64;132;24;7857
67196;-0.77;-0.01;0.01;-0.64;137;26;7856
67217;-0.77;-0.01;0.01;-0.64;137;25;7853
67236;-0.77;-0.01;0.01;-0.64;141;25;7856
67255;-0.77;-0.01;0.01;-0.64;140;20;7861
67276;-0.77;-0.01;0.01;-0.64;138;20;7860
67295;-0.77;-0.01;0.01;-0.64;139;20;7858
67316;-0.77;-0.01;0.01;-0.64;139;16;7854
67335;-0.77;-0.01;0.01;-0.64;136;17;7851
67356;-0.77;-0.01;0.01;-0.64;133;16;7850
67380;-0.77;-0.01;0.01;-0.64;132;28;7860
67400;-0.77;-0.01;0.01;-0.64;136;25;7850
67419;-0.77;-0.01;0.01;-0.64;140;24;7841
67440;-0.77;-0.01;0.01;-0.64;141;22;7845
67463;-0.77;-0.01;0.01;-0.64;141;22;7845
67484;-0.77;-0.01;0.01;-0.64;143;21;7852
67502;-0.77;-0.01;0.01;-0.64;143;18;7854
67522;-0.77;-0.01;0.01;-0.64;139;20;7852
67543;-0.77;-0.01;0.01;-0.64;140;23;7853
67563;-0.77;-0.01;0.01;-0.64;144;25;7848
67581;-0.77;-0.01;0.01;-0.64;140;21;7846
67602;-0.77;-0.01;0.01;-0.64;134;19;7844
67623;-0.77;-0.01;0.01;-0.64;136;23;7848
67643;-0.77;-0.01;0.01;-0.64;135;22;7846
67661;-0.77;-0.01;0.01;-0.64;138;24;7848
67680;-0.77;-0.01;0.01;-0.64;136;21;7842
67706;-0.77;-0.01;0.01;-0.64;137;21;7848
67724;-0.77;-0.01;0.01;-0.64;134;24;7850
67743;-0.77;-0.01;0.01;-0.64;130;29;7857
67764;-0.77;-0.01;0.01;-0.64;124;28;7865
67785;-0.77;-0.01;0.01;-0.64;127;25;7864
67804;-0.77;-0.01;0.01;-0.64;130;19;7864
67823;-0.77;-0.01;0.01;-0.64;127;21;7865
67844;-0.77;-0.01;0.01;-0.64;124;17;7862
67870;-0.77;-0.01;0.01;-0.64;142;22;7856
67888;-0.77;-0.01;0.01;-0.64;142;22;7848
67908;-0.77;-0.01;0.01;-0.64;140;20;7841
67928;-0.77;-0.01;0.01;-0.64;144;23;7842
67953;-0.77;-0.01;0.01;-0.64;143;23;7851
67971;-0.77;-0.01;0.01;-0.64;138;22;7855
67991;-0.77;-0.01;0.01;-0.64;138;21;7856
68012;-0.77;-0.01;0.01;-0.64;134;21;7857
68032;-0.77;-0.01;0.01;-0.64;136;21;7856
68050;-0.77;-0.01;0.01;-0.64;133;20;7855
68071;-0.77;-0.01;0.01;-0.64;131;14;7861
68091;-0.77;-0.01;0.01;-0.64;132;11;7862
68112;-0.77;-0.01;0.01;-0.64;134;13;7863
68130;-0.77;-0.01;0.01;-0.64;136;17;7867
68149;-0.77;-0.01;0.01;-0.64;134;20;7866
68171;-0.77;-0.01;0.01;-0.64;136;20;7858
68193;-0.77;-0.01;0.01;-0.64;136;19;7856
68213;-0.77;-0.01;0.01;-0.64;133;23;7852
68233;-0.77;-0.01;0.01;-0.64;134;21;7855
68253;-0.77;-0.01;0.01;-0.64;133;22;7849
68273;-0.77;-0.01;0.01;-0.64;130;17;7846
68293;-0.77;-0.01;0.01;-0.64;130;15;7842
68312;-0.77;-0.01;0.01;-0.64;133;17;7847
68333;-0.77;-0.01;0.01;-0.64;137;14;7851
68360;-0.77;-0.01;0.01;-0.64;139;24;7846
68380;-0.77;-0.01;0.01;-0.64;137;19;7846
68399;-0.77;-0.01;0.01;-0.64;136;21;7846
68420;-0.77;-0.01;0.01;-0.64;136;23;7852
68443;-0.77;-0.01;0.01;-0.64;134;23;7855
68464;-0.77;-0.01;0.01;-0.64;133;22;7850
68482;-0.77;-0.01;0.01;-0.64;134;19;7850
68502;-0.77;-0.01;0.01;-0.64;133;20;7852
68523;-0.77;-0.01;0.01;-0.64;133;21;7856
68543;-0.77;-0.01;0.01;-0.64;134;24;7850
68561;-0.77;-0.01;0.01;-0.64;135;25;7854
68582;-0.77;-0.01;0.01;-0.64;137;22;7849
68603;-0.77;-0.01;0.01;-0.64;136;19;7853
68623;-0.77;-0.01;0.01;-0.64;136;16;7854
68641;-0.77;-0.01;0.01;-0.64;135;17;7855
68660;-0.77;-0.01;0.01;-0.64;136;18;7860
68682;-0.77;-0.01;0.01;-0.64;138;20;7857
68699;-0.77;-0.01;0.01;-0.64;138;23;7860
68718;-0.77;-0.01;0.01;-0.64;135;18;7866
68738;-0.77;-0.01;0.01;-0.64;137;15;7859
68759;-0.77;-0.01;0.01;-0.64;136;14;7858
68779;-0.77;-0.01;0.01;-0.64;136;15;7866
68798;-0.77;-0.01;0.01;-0.64;136;15;7859
68817;-0.77;-0.01;0.01;-0.64;134;18;7857
68839;-0.77;-0.01;-0.00;-1.86;30463;18944;-10794
68860;-0.77;-0.01;0.01;-0.64;134;23;7867
68879;-0.77;-0.01;0.01;-0.64;132;18;7865
68898;-0.77;-0.01;0.01;-0.64;128;18;7866
68919;-0.77;-0.01;0.01;-0.64;131;21;7862
68937;-0.77;-0.01;0.01;-0.64;131;21;7862
68957;-0.77;-0.01;0.01;-0.64;127;20;7864
68978;-0.77;-0.01;0.01;-0.64;131;21;7864
69035;-0.77;-0.01;0.01;-0.64;133;22;7863
69055;-0.77;-0.01;0.01;-0.64;135;21;7854
69073;-0.77;-0.01;0.01;-0.64;132;20;7846
69093;-0.77;-0.01;0.01;-0.64;134;21;7848
69114;-0.77;-0.01;0.01;-0.64;136;22;7851
69135;-0.77;-0.01;0.01;-0.64;137;20;7852
69153;-0.77;-0.01;0.01;-0.64;140;24;7845
69172;-0.77;-0.01;0.01;-0.64;140;21;7850
69194;-0.77;-0.01;0.01;-0.64;141;26;7857
69216;-0.77;-0.01;0.01;-0.64;137;29;7860
69235;-0.77;-0.01;0.01;-0.64;133;29;7863
69256;-0.77;-0.01;0.01;-0.64;135;29;7868
69278;-0.77;-0.01;0.01;-0.64;139;28;7865
69296;-0.77;-0.01;0.01;-0.64;145;29;7863
69320;-0.77;-0.01;0.01;-0.64;138;29;7865
69341;-0.77;-0.01;0.01;-0.64;138;28;7862
69362;-0.77;-0.01;0.01;-0.64;135;25;7862
69381;-0.77;-0.01;0.01;-0.64;135;21;7858
69400;-0.77;-0.01;0.01;-0.64;136;22;7857
69421;-0.77;-0.01;0.01;-0.64;137;19;7855
69442;-0.77;-0.01;0.01;-0.64;138;21;7859
69465;-0.77;-0.01;0.01;-0.64;140;20;7851
69486;-0.77;-0.01;0.01;-0.64;140;21;7850
69511;-0.77;-0.01;0.01;-0.64;141;19;7850
69530;-0.77;-0.01;0.01;-0.64;140;16;7852
69549;-0.77;-0.01;0.01;-0.64;135;14;7849
69569;-0.77;-0.01;0.01;-0.64;134;17;7852
69590;-0.77;-0.01;0.01;-0.64;135;17;7852
69610;-0.77;-0.01;0.01;-0.64;136;20;7850
69629;-0.77;-0.01;0.01;-0.64;138;20;7853
69649;-0.77;-0.01;0.01;-0.64;138;23;7853
69670;-0.77;-0.01;0.01;-0.64;135;27;7852
69690;-0.77;-0.01;0.01;-0.64;135;26;7851
69713;-0.77;-0.01;0.01;-0.64;137;23;7854
69733;-0.77;-0.01;0.01;-0.64;133;21;7854
69753;-0.77;-0.01;0.01;-0.64;134;25;7861
69772;-0.77;-0.01;0.01;-0.64;136;23;7857
69800;-0.77;-0.01;0.01;-0.64;135;19;7864
69820;-0.77;-0.01;0.01;-0.64;131;19;7861
69839;-0.77;-0.01;0.01;-0.64;135;19;7857
69860;-0.77;-0.01;0.01;-0.64;137;20;7861
69879;-0.77;-0.01;0.01;-0.64;138;23;7863
69899;-0.77;-0.01;0.01;-0.64;137;22;7856
70929;-0.77;-0.01;0.01;-0.64;130;23;7857
70949;-0.77;-0.01;0.01;-0.64;134;24;7856
70973;-0.77;-0.01;0.01;-0.64;132;25;7858
70991;-0.77;-0.01;0.01;-0.64;135;25;7855
71012;-0.77;-0.01;0.01;-0.64;137;26;7858
71033;-0.77;-0.01;0.01;-0.64;143;25;7857
71052;-0.77;-0.01;0.01;-0.64;149;25;7854
71071;-0.77;-0.01;0.01;-0.64;150;27;7855
71091;-0.77;-0.01;0.01;-0.64;148;25;7857
71112;-0.77;-0.01;0.01;-0.64;145;22;7855
71132;-0.77;-0.01;0.01;-0.64;142;26;7857
71151;-0.77;-0.01;0.01;-0.64;142;27;7860
71171;-0.77;-0.01;0.01;-0.64;140;24;7859
71192;-0.77;-0.01;0.01;-0.64;140;28;7859
71214;-0.77;-0.01;0.01;-0.64;143;28;7867
71234;-0.77;-0.01;0.01;-0.64;141;29;7869
71255;-0.77;-0.01;0.01;-0.64;142;24;7867
71276;-0.77;-0.01;0.01;-0.64;139;19;7861
71298;-0.77;-0.01;0.01;-0.64;141;31;7851
71317;-0.77;-0.01;0.01;-0.64;138;29;7853
71338;-0.77;-0.01;0.01;-0.64;136;27;7856
71360;-0.77;-0.01;0.01;-0.64;136;28;7858
71378;-0.77;-0.01;0.01;-0.64;132;32;7855
71397;-0.77;-0.01;0.01;-0.64;129;30;7854
71418;-0.77;-0.01;0.01;-0.64;128;26;7853
71440;-0.77;-0.01;0.01;-0.64;129;24;7859
71458;-0.77;-0.01;0.01;-0.64;132;27;7851
71480;-0.77;-0.01;0.01;-0.64;131;26;7845
71502;-0.77;-0.01;0.01;-0.64;132;22;7851
71521;-0.77;-0.01;0.01;-0.64;128;23;7854
71541;-0.77;-0.01;0.01;-0.64;128;23;7862
71560;-0.77;-0.01;0.01;-0.64;134;23;7860
71582;-0.77;-0.01;0.01;-0.64;132;25;7862
71601;-0.77;-0.01;0.01;-0.64;129;26;7863
71620;-0.77;-0.01;0.01;-0.64;127;25;7865
71640;-0.77;-0.01;0.01;-0.64;127;21;7859
71662;-0.77;-0.01;0.01;-0.64;130;20;7861
71681;-0.77;-0.01;0.01;-0.64;136;20;7864
71700;-0.77;-0.01;0.01;-0.64;139;19;7873
71724;-0.77;-0.01;0.01;-0.64;137;19;7871
71744;-0.77;-0.01;0.01;-0.64;139;24;7865
71763;-0.77;-0.01;0.01;-0.64;140;25;7864
71789;-0.77;-0.01;0.01;-0.64;136;27;7847
71808;-0.77;-0.01;0.01;-0.64;137;24;7848
71829;-0.77;-0.01;0.01;-0.64;137;23;7857
71848;-0.77;-0.01;0.01;-0.64;135;23;7857
71869;-0.77;-0.01;0.01;-0.64;134;23;7853
71888;-0.77;-0.01;0.01;-0.64;133;19;7852
71908;-0.77;-0.01;0.01;-0.64;138;18;7852
71928;-0.77;-0.01;0.01;-0.64;139;19;7850
71947;-0.77;-0.01;0.01;-0.64;138;22;7851
71972;-0.77;-0.01;0.01;-0.64;139;19;7852
71992;-0.77;-0.01;0.01;-0.64;135;18;7856
72051;-0.77;-0.01;0.01;-0.64;138;23;7854
72070;-0.77;-0.01;0.01;-0.64;136;26;7861
72089;-0.77;-0.01;0.01;-0.64;135;26;7862
72110;-0.77;-0.01;0.01;-0.64;139;26;7855
72131;-0.77;-0.01;0.01;-0.64;139;27;7856
72149;-0.77;-0.01;0.01;-0.64;141;23;7862
72168;-0.77;-0.01;0.01;-0.64;137;22;7868
72189;-0.77;-0.01;0.01;-0.64;134;16;7867
72210;-0.77;-0.01;0.01;-0.64;135;12;7859
72238;-0.77;-0.01;0.01;-0.64;130;12;7854
72261;-0.77;-0.01;0.01;-0.64;129;11;7859
72282;-0.77;-0.01;0.01;-0.64;131;14;7859
72302;-0.77;-0.01;0.01;-0.64;137;17;7861
72320;-0.77;-0.01;0.01;-0.64;139;20;7857
72341;-0.77;-0.01;0.01;-0.64;137;15;7857
72362;-0.77;-0.01;0.01;-0.64;139;16;7855
72382;-0.77;-0.01;0.01;-0.64;142;17;7850
72400;-0.77;-0.01;0.01;-0.64;142;18;7851
72421;-0.77;-0.01;0.01;-0.64;139;17;7848
72441;-0.77;-0.01;0.01;-0.64;139;15;7848
72460;-0.77;-0.01;0.01;-0.64;133;17;7852
72479;-0.77;-0.01;0.01;-0.64;133;22;7856
72503;-0.77;-0.01;0.01;-0.64;134;22;7859
72523;-0.77;-0.01;0.01;-0.64;132;19;7862
72543;-0.77;-0.01;0.01;-0.64;137;21;7859
72563;-0.77;-0.01;0.01;-0.64;142;20;7856
72582;-0.77;-0.01;0.01;-0.64;138;17;7863
72603;-0.77;-0.01;0.01;-0.64;138;19;7866
72622;-0.77;-0.01;0.01;-0.64;137;18;7868
72643;-0.77;-0.01;0.01;-0.64;138;19;7870
72662;-0.77;-0.01;0.01;-0.64;139;20;7865
72683;-0.77;-0.01;0.01;-0.64;140;20;7865
72702;-0.77;-0.01;0.01;-0.64;139;21;7860
72729;-0.77;-0.01;0.01;-0.64;135;23;7850
72748;-0.77;-0.01;0.01;-0.64;136;23;7853
72771;-0.77;-0.01;0.01;-0.64;133;25;7845
72792;-0.77;-0.01;0.01;-0.64;132;28;7843
72812;-0.77;-0.01;0.01;-0.64;133;29;7844
72830;-0.77;-0.01;0.01;-0.64;135;26;7846
72851;-0.77;-0.01;0.01;-0.64;141;32;7844
72871;-0.77;-0.01;0.01;-0.64;135;30;7849
72891;-0.77;-0.01;0.01;-0.64;138;32;7850
72910;-0.77;-0.01;0.01;-0.64;136;27;7850
72929;-0.77;-0.01;0.01;-0.64;135;25;7852
72951;-0.77;-0.01;0.01;-0.64;131;29;7853
72971;-0.77;-0.01;0.01;-0.64;134;28;7855
72991;-0.77;-0.01;0.01;-0.64;133;26;7855
73022;-0.77;-0.01;0.01;-0.64;126;26;7859
73041;-0.77;-0.01;0.01;-0.64;132;26;7855
73060;-0.77;-0.01;0.01;-0.64;133;28;7857
73079;-0.77;-0.01;0.01;-0.64;134;29;7859
73099;-0.77;-0.01;0.01;-0.64;137;28;7859
73121;-0.77;-0.01;0.01;-0.64;134;27;7855
73139;-0.77;-0.01;0.01;-0.64;137;27;7856
73158;-0.77;-0.01;0.01;-0.64;136;24;7855
73179;-0.77;-0.01;0.01;-0.64;138;25;7858
73208;-0.77;-0.01;0.01;-0.64;139;21;7859
73226;-0.77;-0.01;0.01;-0.64;136;22;7857
73245;-0.77;-0.01;0.01;-0.64;140;22;7851
73270;-0.77;-0.01;0.01;-0.64;139;19;7851
73290;-0.77;-0.01;0.01;-0.64;134;20;7853
73308;-0.77;-0.01;0.01;-0.64;130;22;7846
73329;-0.77;-0.01;0.01;-0.64;126;21;7852
73349;-0.77;-0.01;0.01;-0.64;124;27;7848
73370;-0.77;-0.01;0.01;-0.64;125;22;7850
73388;-0.77;-0.01;0.01;-0.64;130;19;7846
73408;-0.77;-0.01;0.01;-0.64;132;23;7851
73429;-0.77;-0.01;0.01;-0.64;134;25;7850
73449;-0.77;-0.01;0.01;-0.64;128;21;7861
73467;-0.77;-0.01;0.01;-0.64;128;21;7854
73488;-0.77;-0.01;0.01;-0.64;131;20;7854
73511;-0.77;-0.01;0.01;-0.64;136;17;7855
73531;-0.77;-0.01;0.01;-0.64;135;15;7866
73551;-0.77;-0.01;0.01;-0.64;132;15;7867
73570;-0.77;-0.01;0.01;-0.64;130;18;7861
73591;-0.77;-0.01;0.01;-0.64;131;22;7860
73610;-0.77;-0.01;0.01;-0.64;130;21;7863
73630;-0.77;-0.01;0.01;-0.64;131;21;7859
73650;-0.77;-0.01;0.01;-0.64;130;20;7863
73670;-0.77;-0.01;0.01;-0.64;135;24;7865
73697;-0.77;-0.01;0.01;-0.64;131;26;7864
73718;-0.77;-0.01;0.01;-0.64;132;20;7872
73737;-0.77;-0.01;0.01;-0.64;136;22;7870
73760;-0.77;-0.01;0.01;-0.64;139;21;7866
73781;-0.77;-0.01;0.01;-0.64;142;24;7865
73801;-0.77;-0.01;0.01;-0.64;140;20;7867
73819;-0.77;-0.01;0.01;-0.64;143;21;7871
73839;-0.77;-0.01;0.01;-0.64;146;21;7855
73860;-0.77;-0.01;0.01;-0.64;147;24;7856
73880;-0.77;-0.01;0.01;-0.64;144;24;7855
73898;-0.77;-0.01;0.01;-0.64;140;27;7851
73919;-0.77;-0.01;0.01;-0.64;137;34;7854
73939;-0.77;-0.01;0.01;-0.64;131;33;7860
73960;-0.77;-0.01;0.01;-0.64;131;31;7860
73979;-0.77;-0.01;0.01;-0.64;131;28;7861
74001;-0.77;-0.01;0.01;-0.64;132;27;7864
74053;-0.77;-0.01;0.01;-0.64;135;26;7862
74072;-0.77;-0.01;0.01;-0.64;135;26;7861
74092;-0.77;-0.01;0.01;-0.64;139;28;7857
74113;-0.77;-0.01;0.01;-0.64;128;27;7849
74133;-0.77;-0.01;0.01;-0.64;133;30;7859
74158;-0.77;-0.01;0.01;-0.64;126;17;7852
75187;-0.77;-0.01;0.01;-0.64;133;22;7856
75209;-0.77;-0.01;0.01;-0.64;135;21;7861
75228;-0.77;-0.01;0.01;-0.64;136;17;7856
75247;-0.77;-0.01;0.01;-0.64;136;17;7857
75267;-0.77;-0.01;0.01;-0.64;138;18;7857
75288;-0.77;-0.01;0.01;-0.64;138;20;7863
75310;-0.77;-0.01;0.01;-0.64;135;24;7862
75331;-0.77;-0.01;0.01;-0.64;142;24;7864
75350;-0.77;-0.01;0.01;-0.64;144;23;7869
75371;-0.77;-0.01;0.01;-0.64;138;22;7867
75390;-0.77;-0.01;0.01;-0.64;134;22;7866
75411;-0.77;-0.01;0.01;-0.64;135;23;7862
75430;-0.77;-0.01;0.01;-0.64;127;24;7862
75451;-0.77;-0.01;0.01;-0.64;131;25;7853
75470;-0.77;-0.01;0.01;-0.64;132;23;7852
75490;-0.77;-0.01;0.01;-0.64;135;23;7858
75510;-0.77;-0.01;0.01;-0.64;138;24;7859
75530;-0.77;-0.01;0.01;-0.64;140;23;7856
75554;-0.77;-0.01;0.01;-0.64;136;23;7855
75573;-0.77;-0.01;0.01;-0.64;138;23;7849
75593;-0.77;-0.01;0.01;-0.64;137;24;7852
75612;-0.77;-0.01;0.01;-0.64;138;20;7845
75634;-0.77;-0.01;0.01;-0.64;139;19;7838
75657;-0.77;-0.01;0.01;-0.64;138;22;7860
75676;-0.77;-0.01;0.01;-0.64;138;18;7855
75695;-0.77;-0.01;0.01;-0.64;139;16;7854
75717;-0.77;-0.01;0.01;-0.64;140;16;7857
75736;-0.77;-0.01;0.01;-0.64;139;13;7858
75756;-0.77;-0.01;0.01;-0.64;149;42;7863
75775;-0.77;-0.01;0.01;-0.64;163;56;7875
75801;-0.77;-0.01;0.01;-0.64;95;-6;7903
75819;-0.77;-0.00;0.01;-0.64;69;32;7957
75838;-0.77;-0.00;0.01;-0.64;76;26;8057
75859;-0.77;0.00;0.00;-0.64;127;58;8211
75881;-0.77;0.01;0.00;-0.64;94;134;8528
75899;-0.77;0.01;0.00;-0.63;-90;143;8838
75917;-0.77;0.01;0.00;-0.63;-315;51;9160
75939;-0.77;0.01;0.00;-0.63;-576;7;9415
75959;-0.78;0.01;0.00;-0.63;-785;-15;9577
75979;-0.78;0.02;0.00;-0.63;-922;-17;9618
75997;-0.78;0.02;0.00;-0.63;-953;15;9497
76019;-0.78;0.02;-0.00;-0.63;-867;54;9375
76042;-0.78;0.03;-0.00;-0.62;-771;136;9328
76061;-0.79;0.03;-0.00;-0.62;-764;143;9269
76081;-0.79;0.04;-0.00;-0.61;-770;64;9252
76103;-0.79;0.05;-0.00;-0.61;-806;-61;9231
76122;-0.80;0.05;-0.01;-0.60;-864;-151;9114
76147;-0.83;0.27;-0.10;-0.47;-2875;-2577;6527
76167;-0.83;0.28;-0.10;-0.47;-3031;-2645;6478
76189;-0.83;0.28;-0.10;-0.47;-3140;-2745;6377
76208;-0.83;0.29;-0.11;-0.47;-3156;-2860;6300
76228;-0.83;0.29;-0.11;-0.47;-3173;-2950;6238
76247;-0.83;0.29;-0.11;-0.46;-3262;-3036;6217
76269;-0.83;0.30;-0.12;-0.46;-3408;-3150;6202
76292;-0.82;0.30;-0.12;-0.46;-3590;-3236;6157
76313;-0.82;0.30;-0.13;-0.46;-3683;-3328;6106
76332;-0.82;0.31;-0.13;-0.46;-3674;-3462;6080
76353;-0.82;0.31;-0.14;-0.46;-3703;-3586;6060
76372;-0.82;0.31;-0.14;-0.46;-3785;-3687;6071
76393;-0.82;0.31;-0.14;-0.46;-3936;-3731;6056
76413;-0.82;0.32;-0.15;-0.46;-4086;-3726;6045
76434;-0.82;0.32;-0.15;-0.46;-4190;-3689;5980
76453;-0.81;0.32;-0.15;-0.46;-4229;-3652;5843
76475;-0.81;0.32;-0.15;-0.46;-4165;-3603;5707
76496;-0.81;0.33;-0.16;-0.46;-4043;-3575;5601
76520;-0.81;0.33;-0.16;-0.46;-3944;-3540;5493
76539;-0.81;0.33;-0.17;-0.46;-3904;-3471;5457
76560;-0.81;0.34;-0.17;-0.45;-3970;-3351;5476
