t;w;x;y;z;ax;ay;az
1024;-0.08;-0.09;-0.75;-0.65;15;8100;-1116
1042;-0.08;-0.09;-0.75;-0.65;18;8101;-1112
1060;-0.08;-0.09;-0.75;-0.65;15;8104;-1112
1077;-0.08;-0.09;-0.75;-0.65;13;8103;-1117
1094;-0.08;-0.09;-0.75;-0.65;18;8101;-1116
1110;-0.08;-0.09;-0.75;-0.65;18;8103;-1113
1130;-0.08;-0.09;-0.75;-0.65;13;8102;-1109
1149;-0.08;-0.09;-0.75;-0.65;11;8102;-1110
1165;-0.08;-0.09;-0.75;-0.65;13;8098;-1107
1182;-0.08;-0.09;-0.75;-0.65;13;8096;-1109
1201;-0.08;-0.09;-0.75;-0.65;17;8095;-1112
1220;-0.08;-0.09;-0.75;-0.65;21;8096;-1119
1240;-0.08;-0.09;-0.75;-0.65;13;8097;-1120
1260;-0.08;-0.09;-0.75;-0.65;12;8095;-1125
1283;-0.08;-0.09;-0.75;-0.65;9;8096;-1124
1300;-0.08;-0.09;-0.75;-0.65;7;8094;-1120
1316;-0.08;-0.09;-0.75;-0.65;7;8094;-1117
1333;-0.08;-0.09;-0.75;-0.65;7;8102;-1115
1353;-0.08;-0.09;-0.75;-0.65;8;8100;-1116
1370;-0.08;-0.09;-0.75;-0.65;9;8098;-1114
1387;-0.08;-0.09;-0.75;-0.65;15;8100;-1115
1405;-0.08;-0.09;-0.75;-0.65;14;8103;-1122
1424;-0.08;-0.09;-0.75;-0.65;13;8101;-1121
1446;-0.08;-0.09;-0.75;-0.65;15;8098;-1125
1476;-0.08;-0.09;-0.75;-0.65;13;8102;-1123
1492;-0.08;-0.09;-0.75;-0.65;11;8099;-1125
1511;-0.08;-0.09;-0.75;-0.65;12;8100;-1124
1529;-0.08;-0.09;-0.75;-0.65;12;8098;-1125
1554;-0.08;-0.09;-0.75;-0.65;25;8098;-1113
1572;-0.08;-0.09;-0.75;-0.65;24;8100;-1118
1591;-0.08;-0.09;-0.75;-0.65;21;8095;-1127
1609;-0.08;-0.09;-0.75;-0.65;19;8095;-1135
1625;-0.08;-0.09;-0.75;-0.65;16;8095;-1133
1644;-0.08;-0.09;-0.75;-0.65;15;8095;-1124
1662;-0.08;-0.09;-0.75;-0.65;15;8092;-1115
1683;-0.08;-0.09;-0.75;-0.65;16;8095;-1110
1701;-0.08;-0.09;-0.75;-0.65;15;8090;-1116
1718;-0.08;-0.09;-0.75;-0.65;13;8090;-1119
1736;-0.08;-0.09;-0.75;-0.65;22;8094;-1118
1754;-0.08;-0.09;-0.75;-0.65;19;8095;-1118
1772;-0.08;-0.09;-0.75;-0.65;23;8098;-1117
1790;-0.08;-0.09;-0.75;-0.65;22;8097;-1119
1808;-0.08;-0.09;-0.75;-0.65;23;8099;-1122
1825;-0.08;-0.09;-0.75;-0.65;22;8100;-1125
1843;-0.08;-0.09;-0.75;-0.65;22;8102;-1122
1861;-0.08;-0.09;-0.75;-0.65;23;8098;-1127
1879;-0.08;-0.09;-0.75;-0.65;22;8097;-1130
1901;-0.08;-0.09;-0.75;-0.65;23;8095;-1127
1918;-0.08;-0.09;-0.75;-0.65;20;8089;-1120
1936;-0.08;-0.09;-0.75;-0.65;17;8084;-1121
1953;-0.08;-0.09;-0.75;-0.65;15;8087;-1114
1972;-0.08;-0.09;-0.75;-0.65;18;8087;-1114
1990;-0.08;-0.09;-0.75;-0.65;20;8087;-1116
2006;-0.08;-0.09;-0.75;-0.65;19;8086;-1116
2025;-0.08;-0.09;-0.75;-0.65;20;8087;-1113
2044;-0.08;-0.09;-0.75;-0.65;20;8091;-1109
2061;-0.08;-0.09;-0.75;-0.65;22;8091;-1112
2078;-0.08;-0.09;-0.75;-0.65;22;8091;-1110
2104;-0.08;-0.09;-0.75;-0.65;15;8094;-1115
2123;-0.08;-0.09;-0.75;-0.65;17;8091;-1116
2139;-0.08;-0.09;-0.75;-0.65;17;8084;-1111
2156;-0.08;-0.09;-0.75;-0.65;14;8085;-1114
2175;-0.08;-0.09;-0.75;-0.65;19;8088;-1113
2195;-0.08;-0.09;-0.75;-0.65;19;8085;-1115
2211;-0.08;-0.09;-0.75;-0.65;21;8086;-1114
2227;-0.08;-0.09;-0.75;-0.65;18;8089;-1117
2247;-0.08;-0.09;-0.75;-0.65;19;8092;-1124
2266;-0.08;-0.09;-0.75;-0.65;18;8095;-1126
2283;-0.08;-0.09;-0.75;-0.65;19;8101;-1123
2299;-0.08;-0.09;-0.75;-0.65;17;8101;-1118
2323;-0.08;-0.09;-0.75;-0.65;17;8099;-1115
2341;-0.08;-0.09;-0.75;-0.65;18;8100;-1121
2357;-0.08;-0.09;-0.75;-0.65;18;8103;-1127
2376;-0.08;-0.09;-0.75;-0.65;14;8099;-1124
2394;-0.08;-0.09;-0.75;-0.65;17;8098;-1118
2413;-0.08;-0.09;-0.75;-0.65;10;8099;-1115
2429;-0.08;-0.09;-0.75;-0.65;15;8096;-1114
2446;-0.08;-0.09;-0.75;-0.65;16;8097;-1114
2466;-0.08;-0.09;-0.75;-0.65;13;8101;-1121
2484;-0.08;-0.09;-0.75;-0.65;10;8096;-1117
2501;-0.08;-0.09;-0.75;-0.65;10;8099;-1111
2518;-0.08;-0.09;-0.75;-0.65;12;8097;-1116
2541;-0.08;-0.09;-0.75;-0.65;10;8096;-1116
2558;-0.08;-0.09;-0.75;-0.65;13;8093;-1112
2577;-0.08;-0.09;-0.75;-0.65;10;8094;-1107
2594;-0.08;-0.09;-0.75;-0.65;12;8095;-1101
2612;-0.08;-0.09;-0.75;-0.65;12;8097;-1105
2630;-0.08;-0.09;-0.75;-0.65;10;8097;-1102
2653;-0.08;-0.09;-0.75;-0.65;14;8098;-1118
2672;-0.08;-0.09;-0.75;-0.65;17;8096;-1119
2689;-0.08;-0.09;-0.75;-0.65;15;8099;-1118
2708;-0.08;-0.09;-0.75;-0.65;18;8098;-1113
2725;-0.08;-0.09;-0.75;-0.65;14;8097;-1121
2747;-0.08;-0.09;-0.75;-0.65;10;8094;-1122
2764;-0.08;-0.09;-0.75;-0.65;7;8089;-1123
2783;-0.08;-0.09;-0.75;-0.65;4;8093;-1122
2801;-0.08;-0.09;-0.75;-0.65;2;8096;-1122
2818;-0.08;-0.09;-0.75;-0.65;5;8096;-1122
2836;-0.08;-0.09;-0.75;-0.65;10;8096;-1122
2855;-0.08;-0.09;-0.75;-0.65;7;8092;-1121
2872;-0.08;-0.09;-0.75;-0.65;6;8092;-1125
2889;-0.08;-0.09;-0.75;-0.65;9;8090;-1122
2907;-0.08;-0.09;-0.75;-0.65;16;8090;-1116
2927;-0.08;-0.09;-0.75;-0.65;12;8090;-1118
2944;-0.08;-0.09;-0.75;-0.65;9;8092;-1117
2964;-0.08;-0.09;-0.75;-0.65;14;8093;-1110
2983;-0.08;-0.09;-0.75;-0.65;13;8095;-1110
3003;-0.08;-0.09;-0.75;-0.65;12;8095;-1118
3019;-0.08;-0.09;-0.75;-0.65;11;8097;-1121
3035;-0.08;-0.09;-0.75;-0.65;12;8092;-1122
3055;-0.08;-0.09;-0.75;-0.65;12;8096;-1123
3074;-0.08;-0.09;-0.75;-0.65;14;8094;-1117
3091;-0.08;-0.09;-0.75;-0.65;12;8096;-1113
3107;-0.08;-0.09;-0.75;-0.65;15;8096;-1112
3126;-0.08;-0.09;-0.75;-0.65;13;8096;-1110
3146;-0.08;-0.09;-0.75;-0.65;18;8099;-1110
3162;-0.08;-0.09;-0.75;-0.65;21;8098;-1117
3193;-0.08;-0.09;-0.75;-0.65;18;8094;-1122
3212;-0.08;-0.09;-0.75;-0.65;16;8090;-1117
3230;-0.08;-0.09;-0.75;-0.65;13;8092;-1116
3247;-0.08;-0.09;-0.75;-0.65;14;8093;-1121
3265;-0.08;-0.09;-0.75;-0.65;15;8095;-1124
3284;-0.08;-0.09;-0.75;-0.65;15;8093;-1123
3302;-0.08;-0.09;-0.75;-0.65;18;8092;-1123
3319;-0.08;-0.09;-0.75;-0.65;13;8094;-1118
3336;-0.08;-0.09;-0.75;-0.65;16;8097;-1120
3356;-0.08;-0.09;-0.75;-0.65;17;8098;-1125
3373;-0.08;-0.09;-0.75;-0.65;20;8098;-1116
3395;-0.08;-0.09;-0.75;-0.65;16;8094;-1119
3412;-0.08;-0.09;-0.75;-0.65;13;8095;-1109
3432;-0.08;-0.09;-0.75;-0.65;15;8096;-1108
3451;-0.08;-0.09;-0.75;-0.65;16;8099;-1112
3481;-0.08;-0.09;-0.75;-0.65;17;8099;-1116
3498;-0.08;-0.09;-0.75;-0.65;17;8100;-1122
3524;-0.08;-0.09;-0.75;-0.65;13;8103;-1119
3540;-0.08;-0.09;-0.75;-0.65;12;8099;-1119
3557;-0.08;-0.09;-0.75;-0.65;18;8096;-1113
3574;-0.08;-0.09;-0.75;-0.65;19;8095;-1106
3593;-0.08;-0.09;-0.75;-0.65;22;8092;-1102
3611;-0.08;-0.09;-0.75;-0.65;24;8090;-1103
3632;-0.08;-0.09;-0.75;-0.65;21;8091;-1103
3650;-0.08;-0.09;-0.75;-0.65;24;8095;-1097
3668;-0.08;-0.09;-0.75;-0.65;24;8094;-1105
3686;-0.08;-0.09;-0.75;-0.65;20;8090;-1110
3713;-0.08;-0.09;-0.75;-0.65;25;8094;-1116
3730;-0.08;-0.09;-0.75;-0.65;20;8093;-1112
3748;-0.08;-0.09;-0.75;-0.65;21;8091;-1113
3766;-0.08;-0.09;-0.75;-0.65;16;8095;-1107
3784;-0.08;-0.09;-0.75;-0.65;13;8096;-1105
3801;-0.08;-0.09;-0.75;-0.65;13;8098;-1110
3819;-0.08;-0.09;-0.75;-0.65;12;8095;-1120
3838;-0.08;-0.09;-0.75;-0.65;15;8096;-1123
3858;-0.08;-0.09;-0.75;-0.65;13;8097;-1116
3875;-0.08;-0.09;-0.75;-0.65;17;8096;-1120
3893;-0.08;-0.09;-0.75;-0.65;11;8100;-1115
4912;-0.08;-0.09;-0.75;-0.65;21;8099;-1104
4929;-0.08;-0.09;-0.75;-0.65;17;8100;-1113
4945;-0.08;-0.09;-0.75;-0.65;18;8099;-1115
4965;-0.08;-0.09;-0.75;-0.65;17;8098;-1112
4984;-0.08;-0.09;-0.75;-0.65;17;8100;-1107
5000;-0.08;-0.09;-0.75;-0.65;18;8101;-1109
5017;-0.08;-0.09;-0.75;-0.65;16;8098;-1111
5036;-0.08;-0.09;-0.75;-0.65;15;8097;-1114
5058;-0.08;-0.09;-0.75;-0.65;12;8096;-1115
5074;-0.08;-0.09;-0.75;-0.65;13;8096;-1117
5091;-0.08;-0.09;-0.75;-0.65;12;8100;-1118
5111;-0.08;-0.09;-0.75;-0.65;9;8099;-1118
5128;-0.08;-0.09;-0.75;-0.65;6;8098;-1121
5145;-0.08;-0.09;-0.75;-0.65;13;8097;-1122
5163;-0.08;-0.09;-0.75;-0.65;12;8094;-1116
5182;-0.08;-0.09;-0.75;-0.65;14;8093;-1115
5199;-0.08;-0.09;-0.75;-0.65;17;8094;-1115
5215;-0.08;-0.09;-0.75;-0.65;15;8095;-1113
5234;-0.08;-0.09;-0.75;-0.65;19;8096;-1118
5252;-0.08;-0.09;-0.75;-0.65;20;8096;-1117
5282;-0.08;-0.09;-0.75;-0.65;20;8097;-1125
5300;-0.08;-0.09;-0.75;-0.65;21;8098;-1126
5318;-0.08;-0.09;-0.75;-0.65;22;8099;-1117
5336;-0.08;-0.09;-0.75;-0.65;21;8098;-1115
5354;-0.08;-0.09;-0.75;-0.65;20;8093;-1117
5371;-0.08;-0.09;-0.75;-0.65;18;8089;-1115
5389;-0.08;-0.09;-0.75;-0.65;16;8088;-1112
5407;-0.08;-0.09;-0.75;-0.65;13;8088;-1116
5424;-0.08;-0.09;-0.75;-0.65;10;8090;-1123
5443;-0.08;-0.09;-0.75;-0.65;12;8088;-1124
5460;-0.08;-0.09;-0.75;-0.65;16;8087;-1123
5478;-0.08;-0.09;-0.75;-0.65;17;8092;-1121
5499;-0.08;-0.09;-0.75;-0.65;11;8093;-1118
5517;-0.08;-0.09;-0.75;-0.65;10;8095;-1116
5534;-0.08;-0.09;-0.75;-0.65;11;8096;-1115
5551;-0.08;-0.09;-0.75;-0.65;11;8094;-1114
5571;-0.08;-0.09;-0.75;-0.65;11;8098;-1119
5588;-0.08;-0.09;-0.75;-0.65;10;8096;-1122
5605;-0.08;-0.09;-0.75;-0.65;11;8090;-1124
5623;-0.08;-0.09;-0.75;-0.65;13;8090;-1126
5641;-0.08;-0.09;-0.75;-0.65;19;8090;-1125
5659;-0.08;-0.09;-0.75;-0.65;19;8088;-1119
5676;-0.08;-0.09;-0.75;-0.65;18;8089;-1118
5698;-0.08;-0.09;-0.75;-0.65;19;8092;-1120
5716;-0.08;-0.09;-0.75;-0.65;17;8095;-1125
5734;-0.08;-0.09;-0.75;-0.65;18;8095;-1128
5750;-0.08;-0.09;-0.75;-0.65;18;8097;-1121
5769;-0.08;-0.09;-0.75;-0.65;20;8101;-1118
5788;-0.08;-0.09;-0.75;-0.65;20;8098;-1114
5804;-0.08;-0.09;-0.75;-0.65;19;8094;-1122
5821;-0.08;-0.09;-0.75;-0.65;4859;28594;4036
5842;-0.08;-0.09;-0.75;-0.65;15;8100;-1110
5862;-0.08;-0.09;-0.75;-0.65;16;8101;-1107
5878;-0.08;-0.09;-0.75;-0.65;15;8106;-1107
5894;-0.08;-0.09;-0.75;-0.65;21;8103;-1102
5917;-0.08;-0.09;-0.75;-0.65;22;8097;-1102
5935;-0.08;-0.09;-0.75;-0.65;21;8094;-1100
5952;-0.08;-0.09;-0.75;-0.65;25;8092;-1099
5969;-0.08;-0.09;-0.75;-0.65;22;8095;-1106
5989;-0.08;-0.09;-0.75;-0.65;17;8097;-1111
6006;-0.08;-0.09;-0.75;-0.65;15;8096;-1115
6022;-0.08;-0.09;-0.75;-0.65;17;8095;-1110
6041;-0.08;-0.09;-0.75;-0.65;17;8095;-1114
6059;-0.08;-0.09;-0.75;-0.65;16;8093;-1121
6077;-0.08;-0.09;-0.75;-0.65;14;8091;-1122
6093;-0.08;-0.09;-0.75;-0.65;16;8096;-1117
6115;-0.08;-0.09;-0.75;-0.65;14;8097;-1119
6133;-0.08;-0.09;-0.75;-0.65;15;8098;-1122
6150;-0.08;-0.09;-0.75;-0.65;19;8098;-1125
6169;-0.08;-0.09;-0.75;-0.65;21;8097;-1119
6186;-0.08;-0.09;-0.75;-0.65;18;8094;-1119
6204;-0.08;-0.09;-0.75;-0.65;18;8094;-1125
6222;-0.08;-0.09;-0.75;-0.65;18;8094;-1122
6239;-0.08;-0.09;-0.75;-0.65;16;8097;-1121
6257;-0.08;-0.09;-0.75;-0.65;14;8098;-1119
6275;-0.08;-0.09;-0.75;-0.65;13;8098;-1115
6293;-0.08;-0.09;-0.75;-0.65;16;8094;-1115
6310;-0.08;-0.09;-0.75;-0.65;16;8089;-1116
6331;-0.08;-0.09;-0.75;-0.65;13;8087;-1118
6349;-0.08;-0.09;-0.75;-0.65;15;8091;-1113
6367;-0.08;-0.09;-0.75;-0.65;17;8091;-1111
6392;-0.08;-0.09;-0.75;-0.65;13;8097;-1119
6409;-0.08;-0.09;-0.75;-0.65;18;8092;-1121
6429;-0.08;-0.09;-0.75;-0.65;23;8097;-1128
6457;-0.08;-0.09;-0.75;-0.65;25;8096;-1132
6474;-0.08;-0.09;-0.75;-0.65;24;8094;-1130
6490;-0.08;-0.09;-0.75;-0.65;23;8092;-1124
6509;-0.08;-0.09;-0.75;-0.65;24;8096;-1120
6527;-0.08;-0.09;-0.75;-0.65;19;8090;-1130
6546;-0.08;-0.09;-0.75;-0.65;23;8091;-1129
6565;-0.08;-0.09;-0.75;-0.65;21;8098;-1128
6584;-0.08;-0.09;-0.75;-0.65;21;8094;-1123
6603;-0.08;-0.09;-0.75;-0.65;18;8092;-1123
6619;-0.08;-0.09;-0.75;-0.65;21;8090;-1119
6636;-0.08;-0.09;-0.75;-0.65;22;8095;-1120
6655;-0.08;-0.09;-0.75;-0.65;23;8094;-1128
6675;-0.08;-0.09;-0.75;-0.65;21;8097;-1125
6692;-0.08;-0.09;-0.75;-0.65;14;8098;-1121
6709;-0.08;-0.09;-0.75;-0.65;8;8099;-1122
6735;-0.08;-0.09;-0.75;-0.65;10;8094;-1123
6753;-0.08;-0.09;-0.75;-0.65;11;8097;-1126
6773;-0.08;-0.09;-0.75;-0.65;11;8094;-1125
6790;-0.08;-0.09;-0.75;-0.65;11;8095;-1123
6810;-0.08;-0.09;-0.75;-0.65;8;8096;-1124
6827;-0.08;-0.09;-0.75;-0.65;10;8100;-1122
6845;-0.08;-0.09;-0.75;-0.65;15;8102;-1118
6862;-0.08;-0.09;-0.75;-0.65;17;8100;-1120
6881;-0.08;-0.09;-0.75;-0.65;13;8101;-1123
6899;-0.08;-0.09;-0.75;-0.65;12;8104;-1124
6922;-0.08;-0.09;-0.75;-0.65;10;8096;-1131
6940;-0.08;-0.09;-0.75;-0.65;10;8095;-1132
6959;-0.08;-0.09;-0.75;-0.65;13;8091;-1124
6977;-0.08;-0.09;-0.75;-0.65;18;8090;-1122
6998;-0.08;-0.09;-0.75;-0.65;16;8091;-1114
7016;-0.08;-0.09;-0.75;-0.65;15;8093;-1107
7034;-0.08;-0.09;-0.75;-0.65;18;8098;-1107
7051;-0.08;-0.09;-0.75;-0.65;15;8097;-1102
7070;-0.08;-0.09;-0.75;-0.65;18;8096;-1101
7087;-0.08;-0.09;-0.75;-0.65;19;8096;-1109
7105;-0.08;-0.09;-0.75;-0.65;17;8098;-1111
7123;-0.08;-0.09;-0.75;-0.65;17;8093;-1115
7141;-0.08;-0.09;-0.75;-0.65;14;8091;-1119
7159;-0.08;-0.09;-0.75;-0.65;12;8096;-1118
7176;-0.08;-0.09;-0.75;-0.65;11;8094;-1113
7195;-0.08;-0.09;-0.75;-0.65;10;8092;-1115
7216;-0.08;-0.09;-0.75;-0.65;10;8092;-1113
7233;-0.08;-0.09;-0.75;-0.65;14;8091;-1105
7251;-0.08;-0.09;-0.75;-0.65;10;8092;-1105
7271;-0.08;-0.09;-0.75;-0.65;9;8095;-1102
7288;-0.08;-0.09;-0.75;-0.65;8;8096;-1103
7304;-0.08;-0.09;-0.75;-0.65;17;8092;-1108
7323;-0.08;-0.09;-0.75;-0.65;20;8091;-1111
7341;-0.08;-0.09;-0.75;-0.65;20;8090;-1112
7360;-0.08;-0.09;-0.75;-0.65;14;8092;-1117
7376;-0.08;-0.09;-0.75;-0.65;13;8093;-1121
7393;-0.08;-0.09;-0.75;-0.65;16;8092;-1129
7417;-0.08;-0.09;-0.75;-0.65;17;8089;-1127
7433;-0.08;-0.09;-0.75;-0.65;18;8090;-1122
7450;-0.08;-0.09;-0.75;-0.64;27387;-12550;19408
7471;-0.08;-0.09;-0.75;-0.65;13;8095;-1113
7491;-0.08;-0.09;-0.75;-0.65;13;8099;-1106
7507;-0.08;-0.09;-0.75;-0.65;13;8099;-1106
7523;-0.08;-0.09;-0.75;-0.65;12;8099;-1113
7543;-0.08;-0.09;-0.75;-0.65;14;8097;-1120
7561;-0.08;-0.09;-0.75;-0.65;10;8096;-1121
7579;-0.08;-0.09;-0.75;-0.65;9;8095;-1115
7595;-0.08;-0.09;-0.75;-0.65;7;8093;-1115
7615;-0.08;-0.09;-0.75;-0.65;12;8095;-1122
7636;-0.08;-0.09;-0.75;-0.65;13;8098;-1117
7653;-0.08;-0.09;-0.75;-0.65;16;8102;-1120
7671;-0.08;-0.09;-0.75;-0.65;17;8098;-1119
7689;-0.08;-0.09;-0.75;-0.65;14;8095;-1122
7708;-0.08;-0.09;-0.75;-0.65;16;8092;-1121
7724;-0.08;-0.09;-0.75;-0.65;17;8089;-1123
7743;-0.08;-0.09;-0.75;-0.65;14;8090;-1126
8772;-0.08;-0.09;-0.75;-0.65;16;8091;-1124
8789;-0.08;-0.09;-0.75;-0.65;20;8089;-1120
8806;-0.08;-0.09;-0.75;-0.65;16;8090;-1121
8824;-0.08;-0.09;-0.75;-0.65;16;8091;-1122
8843;-0.08;-0.09;-0.75;-0.65;23;8094;-1118
8864;-0.08;-0.09;-0.75;-0.65;20;8095;-1107
8881;-0.08;-0.09;-0.75;-0.65;13;8096;-1106
8899;-0.08;-0.09;-0.75;-0.65;15;8095;-1105
8917;-0.08;-0.09;-0.75;-0.65;14;8093;-1101
8935;-0.08;-0.09;-0.75;-0.65;14;8090;-1101
8953;-0.08;-0.09;-0.75;-0.65;12;8089;-1101
8970;-0.08;-0.09;-0.75;-0.65;16;8092;-1110
8989;-0.08;-0.09;-0.75;-0.65;16;8092;-1114
9006;-0.08;-0.09;-0.75;-0.65;21;8093;-1114
9031;-0.08;-0.09;-0.75;-0.65;14;8104;-1115
9049;-0.08;-0.09;-0.75;-0.65;17;8102;-1113
9070;-0.08;-0.09;-0.75;-0.65;19;8096;-1113
9089;-0.08;-0.09;-0.75;-0.65;17;8096;-1113
9107;-0.08;-0.09;-0.75;-0.65;18;8097;-1114
9123;-0.08;-0.09;-0.75;-0.65;20;8099;-1115
9141;-0.08;-0.09;-0.75;-0.65;18;8099;-1113
9160;-0.08;-0.09;-0.75;-0.65;23;8096;-1113
9176;-0.08;-0.09;-0.75;-0.65;23;8099;-1111
9193;-0.08;-0.09;-0.75;-0.65;21;8096;-1112
9212;-0.08;-0.09;-0.75;-0.65;19;8093;-1116
9230;-0.08;-0.09;-0.75;-0.65;18;8091;-1117
9247;-0.08;-0.09;-0.75;-0.65;17;8094;-1115
9263;-0.08;-0.09;-0.75;-0.65;14;8094;-1109
9287;-0.08;-0.09;-0.75;-0.65;15;8094;-1108
9304;-0.08;-0.09;-0.75;-0.65;15;8093;-1107
9321;-0.08;-0.09;-0.75;-0.65;19;8094;-1105
9339;-0.08;-0.09;-0.75;-0.65;23;8096;-1105
9358;-0.08;-0.09;-0.75;-0.65;23;8094;-1110
9377;-0.08;-0.09;-0.75;-0.65;24;8092;-1111
9394;-0.08;-0.09;-0.75;-0.65;19;8090;-1109
9424;-0.08;-0.09;-0.75;-0.65;19;8089;-1114
9442;-0.08;-0.09;-0.75;-0.65;23;8092;-1119
9460;-0.08;-0.09;-0.75;-0.65;21;8094;-1121
9476;-0.08;-0.09;-0.75;-0.65;20;8097;-1114
9498;-0.08;-0.09;-0.75;-0.65;14;8097;-1119
9516;-0.08;-0.09;-0.75;-0.65;13;8100;-1116
9534;-0.08;-0.09;-0.75;-0.65;11;8099;-1112
9561;-0.08;-0.09;-0.75;-0.65;17;8094;-1117
9579;-0.08;-0.09;-0.75;-0.65;16;8098;-1118
9597;-0.08;-0.09;-0.75;-0.65;15;8101;-1114
9614;-0.08;-0.09;-0.75;-0.65;16;8104;-1117
9632;-0.08;-0.09;-0.75;-0.65;12;8105;-1114
9650;-0.08;-0.09;-0.75;-0.65;9;8104;-1120
9668;-0.08;-0.09;-0.75;-0.65;9;8099;-1119
9685;-0.08;-0.09;-0.75;-0.65;13;8097;-1119
9704;-0.08;-0.09;-0.75;-0.65;14;8097;-1122
9724;-0.08;-0.09;-0.75;-0.65;14;8100;-1119
9741;-0.08;-0.09;-0.75;-0.65;15;8102;-1117
9761;-0.08;-0.09;-0.75;-0.65;16;8098;-1115
9778;-0.08;-0.09;-0.75;-0.65;15;8097;-1117
9795;-0.08;-0.09;-0.75;-0.65;14;8101;-1120
9813;-0.08;-0.09;-0.75;-0.65;14;8103;-1112
9832;-0.08;-0.09;-0.75;-0.65;10;8103;-1104
9849;-0.08;-0.09;-0.75;-0.65;15;8105;-1098
9866;-0.08;-0.09;-0.75;-0.65;17;8105;-1101
9884;-0.08;-0.09;-0.75;-0.65;15;8103;-1103
9903;-0.08;-0.09;-0.75;-0.65;18;8102;-1103
9922;-0.08;-0.09;-0.75;-0.65;20;8099;-1098
9942;-0.08;-0.09;-0.75;-0.65;21;8096;-1103
9966;-0.08;-0.09;-0.75;-0.65;16;8100;-1107
9983;-0.08;-0.09;-0.75;-0.65;16;8100;-1106
10001;-0.08;-0.09;-0.75;-0.65;15;8099;-1105
10017;-0.08;-0.09;-0.75;-0.65;14;8098;-1102
10036;-0.08;-0.09;-0.75;-0.65;13;8099;-1104
10055;-0.08;-0.09;-0.75;-0.65;17;8099;-1106
10071;-0.08;-0.09;-0.75;-0.65;20;8100;-1113
10088;-0.08;-0.09;-0.75;-0.65;22;8100;-1115
10111;-0.08;-0.09;-0.75;-0.65;11;8092;-1117
10130;-0.08;-0.09;-0.75;-0.65;14;8093;-1115
10149;-0.08;-0.09;-0.75;-0.65;20;8091;-1118
10166;-0.08;-0.09;-0.75;-0.65;20;8090;-1122
10186;-0.08;-0.09;-0.75;-0.65;17;8089;-1124
10203;-0.08;-0.09;-0.75;-0.65;16;8088;-1124
10220;-0.08;-0.09;-0.75;-0.65;17;8090;-1116
10238;-0.08;-0.09;-0.75;-0.65;20;8096;-1112
10257;-0.08;-0.09;-0.75;-0.65;17;8092;-1113
10275;-0.08;-0.09;-0.75;-0.65;11;8098;-1114
10291;-0.08;-0.09;-0.75;-0.65;12;8100;-1112
10309;-0.08;-0.09;-0.75;-0.65;14;8100;-1118
10328;-0.08;-0.09;-0.75;-0.65;15;8102;-1122
10346;-0.08;-0.09;-0.75;-0.65;16;8103;-1122
10367;-0.08;-0.09;-0.75;-0.65;16;8102;-1123
10385;-0.08;-0.09;-0.75;-0.65;10;8099;-1126
10402;-0.08;-0.09;-0.75;-0.65;10;8100;-1121
10420;-0.08;-0.09;-0.75;-0.65;7;8096;-1117
10438;-0.08;-0.09;-0.75;-0.65;5;8094;-1119
10455;-0.08;-0.09;-0.75;-0.65;8;8095;-1118
10474;-0.08;-0.09;-0.75;-0.65;12;8092;-1120
10491;-0.08;-0.09;-0.75;-0.65;16;8087;-1114
10509;-0.08;-0.09;-0.75;-0.65;23;8084;-1112
10527;-0.08;-0.09;-0.75;-0.65;24;8084;-1116
10544;-0.08;-0.09;-0.75;-0.65;23;8085;-1119
10567;-0.08;-0.09;-0.75;-0.65;24;8087;-1124
10584;-0.08;-0.09;-0.75;-0.65;17;8091;-1120
10601;-0.08;-0.09;-0.75;-0.65;11;8093;-1115
10618;-0.08;-0.09;-0.75;-0.65;16;8092;-1110
10637;-0.08;-0.09;-0.75;-0.65;17;8094;-1109
10660;-0.08;-0.09;-0.75;-0.65;19;8095;-1116
10676;-0.08;-0.09;-0.75;-0.65;19;8091;-1114
10695;-0.08;-0.09;-0.75;-0.65;17;8091;-1121
10713;-0.08;-0.09;-0.75;-0.65;21;8091;-1124
10731;-0.08;-0.09;-0.75;-0.65;22;8090;-1130
10748;-0.08;-0.09;-0.75;-0.65;21;8092;-1130
10770;-0.08;-0.09;-0.75;-0.65;19;8090;-1126
10789;-0.08;-0.09;-0.75;-0.65;15;8088;-1121
10805;-0.08;-0.09;-0.75;-0.65;15;8090;-1119
10822;-0.08;-0.09;-0.75;-0.65;11;8092;-1117
10841;-0.08;-0.09;-0.75;-0.65;10;8095;-1117
10860;-0.08;-0.09;-0.75;-0.65;10;8095;-1118
10877;-0.08;-0.09;-0.75;-0.65;10;8097;-1117
10893;-0.08;-0.09;-0.75;-0.65;11;8097;-1115
10913;-0.08;-0.09;-0.75;-0.65;12;8096;-1113
10931;-0.08;-0.09;-0.75;-0.65;11;8096;-1115
10948;-0.08;-0.09;-0.75;-0.65;11;8099;-1111
10965;-0.08;-0.09;-0.75;-0.65;8;8100;-1110
10988;-0.08;-0.09;-0.75;-0.65;7;8101;-1114
11006;-0.08;-0.09;-0.75;-0.65;8;8097;-1108
11022;-0.08;-0.09;-0.75;-0.65;7;8097;-1107
11040;-0.08;-0.09;-0.75;-0.65;4;8097;-1110
11059;-0.08;-0.09;-0.75;-0.65;4;8098;-1104
11077;-0.08;-0.09;-0.75;-0.65;7;8097;-1109
11094;-0.08;-0.09;-0.75;-0.65;9;8096;-1107
11112;-0.08;-0.09;-0.75;-0.65;10;8100;-1115
11131;-0.08;-0.09;-0.75;-0.65;11;8098;-1118
11148;-0.08;-0.09;-0.75;-0.65;15;8096;-1117
11165;-0.08;-0.09;-0.75;-0.65;14;8089;-1119
11187;-0.08;-0.09;-0.75;-0.65;14;8087;-1117
11210;-0.08;-0.09;-0.75;-0.65;20;8093;-1112
11227;-0.08;-0.09;-0.75;-0.65;18;8091;-1117
11246;-0.08;-0.09;-0.75;-0.65;22;8091;-1122
11263;-0.08;-0.09;-0.75;-0.65;22;8092;-1127
11282;-0.08;-0.09;-0.75;-0.65;22;8091;-1121
11299;-0.08;-0.09;-0.75;-0.65;21;8089;-1113
11317;-0.08;-0.09;-0.75;-0.65;19;8089;-1116
11335;-0.08;-0.09;-0.75;-0.65;24;8091;-1121
11354;-0.08;-0.09;-0.75;-0.65;22;8094;-1120
11373;-0.08;-0.09;-0.75;-0.65;23;8095;-1122
11406;-0.08;-0.09;-0.75;-0.65;22;8094;-1117
11426;-0.08;-0.09;-0.75;-0.65;17;8095;-1113
11444;-0.08;-0.09;-0.75;-0.65;16;8094;-1115
11464;-0.08;-0.09;-0.75;-0.65;14;8095;-1114
11481;-0.08;-0.09;-0.75;-0.65;12;8094;-1116
11498;-0.08;-0.09;-0.75;-0.65;16;8098;-1113
11516;-0.08;-0.09;-0.75;-0.65;17;8095;-1116
11536;-0.08;-0.09;-0.75;-0.65;22;8093;-1120
11553;-0.08;-0.09;-0.75;-0.65;22;8090;-1115
11569;-0.08;-0.09;-0.75;-0.65;18;8088;-1112
11588;-0.08;-0.09;-0.75;-0.65;18;8088;-1106
11607;-0.08;-0.09;-0.75;-0.65;13;8088;-1101
11628;-0.08;-0.09;-0.75;-0.65;9;8092;-1107
12649;-0.08;-0.09;-0.75;-0.65;19;8092;-1120
12669;-0.08;-0.09;-0.75;-0.65;17;8092;-1121
12688;-0.08;-0.09;-0.75;-0.65;18;8093;-1118
12704;-0.08;-0.09;-0.75;-0.65;17;8091;-1118
12720;-0.08;-0.09;-0.75;-0.65;16;8091;-1122
12750;-0.08;-0.09;-0.75;-0.65;20;8092;-1112
12768;-0.08;-0.09;-0.75;-0.65;21;8092;-1116
12785;-0.08;-0.09;-0.75;-0.65;21;8093;-1116
12802;-0.08;-0.09;-0.75;-0.65;21;8096;-1121
12821;-0.08;-0.09;-0.75;-0.65;21;8097;-1120
12840;-0.08;-0.09;-0.75;-0.65;21;8093;-1118
12860;-0.08;-0.09;-0.75;-0.65;20;8093;-1118
12878;-0.08;-0.09;-0.75;-0.65;23;8090;-1123
12896;-0.08;-0.09;-0.75;-0.65;22;8089;-1125
12915;-0.08;-0.09;-0.75;-0.65;23;8091;-1121
12931;-0.08;-0.09;-0.75;-0.65;20;8093;-1117
12950;-0.08;-0.09;-0.75;-0.65;19;8096;-1117
12968;-0.08;-0.09;-0.75;-0.65;16;8098;-1121
12987;-0.08;-0.09;-0.75;-0.65;14;8096;-1123
13003;-0.08;-0.09;-0.75;-0.65;16;8095;-1122
13021;-0.08;-0.09;-0.75;-0.65;17;8094;-1117
13040;-0.08;-0.09;-0.75;-0.65;15;8097;-1124
13060;-0.08;-0.09;-0.75;-0.65;16;8096;-1126
13079;-0.08;-0.09;-0.75;-0.65;18;8092;-1123
13096;-0.08;-0.09;-0.75;-0.65;14;8093;-1117
13115;-0.08;-0.09;-0.75;-0.65;15;8092;-1118
13132;-0.08;-0.09;-0.75;-0.65;17;8091;-1121
13151;-0.08;-0.09;-0.75;-0.65;23;8091;-1118
13171;-0.08;-0.09;-0.75;-0.65;23;8090;-1114
13194;-0.08;-0.09;-0.75;-0.65;20;8088;-1110
13212;-0.08;-0.09;-0.75;-0.65;16;8085;-1114
13229;-0.08;-0.09;-0.75;-0.65;12;8085;-1114
13248;-0.08;-0.09;-0.75;-0.65;10;8090;-1114
13268;-0.08;-0.09;-0.84;-1.31;16349;6244;15746
13289;-0.08;-0.09;-0.75;-0.65;15;8100;-1102
13307;-0.08;-0.09;-0.75;-0.65;17;8096;-1102
13323;-0.08;-0.09;-0.75;-0.65;18;8095;-1106
13342;-0.08;-0.09;-0.75;-0.65;20;8095;-1109
13360;-0.08;-0.09;-0.75;-0.65;23;8093;-1116
13378;-0.08;-0.09;-0.75;-0.65;20;8093;-1117
13395;-0.08;-0.09;-0.75;-0.65;23;8096;-1115
13413;-0.08;-0.09;-0.75;-0.65;23;8094;-1116
13432;-0.08;-0.09;-0.75;-0.65;20;8092;-1117
13449;-0.08;-0.09;-0.75;-0.65;21;8090;-1111
13466;-0.08;-0.09;-0.75;-0.65;18;8089;-1111
13488;-0.08;-0.09;-0.75;-0.65;17;8090;-1114
13507;-0.08;-0.09;-0.75;-0.65;14;8092;-1115
13523;-0.08;-0.09;-0.75;-0.65;15;8093;-1124
13541;-0.08;-0.09;-0.75;-0.65;15;8093;-1125
13560;-0.08;-0.09;-0.75;-0.65;12;8093;-1117
13577;-0.08;-0.09;-0.75;-0.65;9;8094;-1114
13594;-0.08;-0.09;-0.75;-0.65;8;8093;-1110
13611;-0.08;-0.09;-0.75;-0.65;7;8089;-1110
13631;-0.08;-0.09;-0.75;-0.65;6;8095;-1112
13648;-0.08;-0.09;-0.75;-0.65;6;8096;-1116
13664;-0.08;-0.09;-0.75;-0.65;11;8092;-1110
13686;-0.08;-0.09;-0.75;-0.65;9;8091;-1105
13704;-0.08;-0.09;-0.75;-0.65;12;8089;-1108
13722;-0.08;-0.09;-0.75;-0.65;14;8091;-1115
13740;-0.08;-0.09;-0.75;-0.65;13;8096;-1115
13758;-0.08;-0.09;-0.75;-0.65;15;8099;-1114
13776;-0.08;-0.09;-0.75;-0.65;16;8102;-1113
13793;-0.08;-0.09;-0.75;-0.65;14;8099;-1121
13811;-0.08;-0.09;-0.75;-0.65;18;8100;-1120
13838;-0.08;-0.09;-0.75;-0.65;19;8090;-1114
13857;-0.08;-0.09;-0.75;-0.65;17;8089;-1113
13874;-0.08;-0.09;-0.75;-0.65;18;8091;-1114
13893;-0.08;-0.09;-0.75;-0.65;13;8089;-1112
13908;-0.08;-0.09;-0.75;-0.65;14;8091;-1112
13926;-0.08;-0.09;-0.75;-0.65;14;8094;-1118
13943;-0.08;-0.09;-0.75;-0.65;13;8092;-1118
13961;-0.08;-0.09;-0.75;-0.65;15;8092;-1124
13979;-0.08;-0.09;-0.75;-0.65;15;8090;-1123
13997;-0.08;-0.09;-0.75;-0.65;13;8093;-1125
14015;-0.08;-0.09;-0.75;-0.65;11;8094;-1130
14032;-0.08;-0.09;-0.75;-0.65;12;8095;-1125
14050;-0.08;-0.09;-0.75;-0.65;13;8094;-1128
14068;-0.08;-0.09;-0.75;-0.65;17;8091;-1134
14085;-0.08;-0.09;-0.75;-0.65;22;8087;-1129
14108;-0.08;-0.09;-0.75;-0.65;17;8092;-1128
14124;-0.08;-0.09;-0.75;-0.65;17;8091;-1121
14142;-0.08;-0.09;-0.75;-0.65;20;8096;-1114
14161;-0.08;-0.09;-0.75;-0.65;20;8099;-1110
14178;-0.08;-0.09;-0.75;-0.65;22;8100;-1111
14195;-0.08;-0.09;-0.75;-0.65;20;8100;-1110
14213;-0.08;-0.09;-0.75;-0.65;13;8101;-1110
14233;-0.08;-0.09;-0.75;-0.65;13;8104;-1103
14250;-0.08;-0.09;-0.75;-0.65;15;8100;-1108
14267;-0.08;-0.09;-0.75;-0.65;13;8099;-1122
14284;-0.08;-0.09;-0.75;-0.65;12;8093;-1123
14307;-0.08;-0.09;-0.75;-0.65;16;8094;-1127
14325;-0.08;-0.09;-0.75;-0.65;16;8092;-1132
14343;-0.08;-0.09;-0.75;-0.65;18;8090;-1135
14379;-0.08;-0.09;-0.75;-0.65;12;8088;-1126
14397;-0.08;-0.09;-0.75;-0.65;15;8090;-1119
14413;-0.08;-0.09;-0.75;-0.65;19;8092;-1117
14431;-0.08;-0.09;-0.75;-0.65;19;8094;-1125
14450;-0.08;-0.09;-0.75;-0.65;23;8098;-1124
14467;-0.08;-0.09;-0.75;-0.65;24;8098;-1121
14485;-0.08;-0.09;-0.75;-0.65;22;8097;-1125
14502;-0.08;-0.09;-0.75;-0.65;20;8091;-1123
14521;-0.08;-0.09;-0.75;-0.65;17;8089;-1114
14542;-0.08;-0.09;-0.75;-0.65;15;8091;-1113
14559;-0.08;-0.09;-0.75;-0.65;16;8092;-1110
14578;-0.08;-0.09;-0.75;-0.65;17;8097;-1111
14595;-0.08;-0.09;-0.75;-0.65;16;8095;-1116
14613;-0.08;-0.09;-0.75;-0.65;19;8095;-1112
14631;-0.08;-0.09;-0.75;-0.65;22;8094;-1115
14648;-0.08;-0.09;-0.75;-0.65;22;8096;-1115
14667;-0.08;-0.09;-0.75;-0.65;21;8099;-1120
14684;-0.08;-0.09;-0.75;-0.65;22;8096;-1122
14702;-0.08;-0.09;-0.75;-0.65;19;8097;-1124
14720;-0.08;-0.09;-0.75;-0.65;14;8097;-1126
14741;-0.08;-0.09;-0.75;-0.65;17;8097;-1131
14760;-0.08;-0.09;-0.75;-0.65;16;8101;-1128
14777;-0.08;-0.09;-0.75;-0.65;18;8100;-1119
14794;-0.08;-0.09;-0.75;-0.65;19;8098;-1114
14811;-0.08;-0.09;-0.75;-0.65;22;8096;-1113
14831;-0.08;-0.09;-0.75;-0.65;17;8098;-1115
14848;-0.08;-0.09;-0.75;-0.65;19;8096;-1110
14866;-0.08;-0.09;-0.75;-0.65;15;8096;-1115
14883;-0.08;-0.09;-0.75;-0.65;11;8100;-1125
14902;-0.08;-0.09;-0.75;-0.65;15;8099;-1128
14929;-0.08;-0.09;-0.75;-0.65;19;8095;-1122
14947;-0.08;-0.09;-0.75;-0.65;17;8094;-1119
14967;-0.08;-0.09;-0.75;-0.65;14;8094;-1121
14985;-0.08;-0.09;-0.75;-0.65;11;8094;-1120
15003;-0.08;-0.09;-0.75;-0.65;12;8091;-1124
15019;-0.08;-0.09;-0.75;-0.65;10;8098;-1121
15039;-0.08;-0.09;-0.75;-0.65;9;8103;-1121
15057;-0.08;-0.09;-0.75;-0.65;6;8099;-1119
15073;-0.08;-0.09;-0.75;-0.65;4;8101;-1111
15090;-0.08;-0.09;-0.75;-0.65;9;8100;-1109
15109;-0.08;-0.09;-0.75;-0.65;11;8101;-1113
15128;-0.08;-0.09;-0.75;-0.65;9;8101;-1111
15144;-0.08;-0.09;-0.75;-0.65;10;8101;-1112
15166;-0.08;-0.09;-0.75;-0.65;9;8100;-1113
15184;-0.08;-0.09;-0.75;-0.65;12;8099;-1116
15201;-0.08;-0.09;-0.75;-0.65;13;8101;-1118
15219;-0.08;-0.09;-0.75;-0.65;11;8104;-1121
15236;-0.08;-0.09;-0.75;-0.65;11;8100;-1119
15256;-0.08;-0.09;-0.75;-0.65;13;8099;-1124
15273;-0.08;-0.09;-0.75;-0.65;9;8099;-1121
15289;-0.08;-0.09;-0.75;-0.65;8;8096;-1118
15308;-0.08;-0.09;-0.75;-0.65;11;8095;-1116
15327;-0.08;-0.09;-0.75;-0.65;13;8096;-1108
15345;-0.08;-0.09;-0.75;-0.65;16;8093;-1109
15367;-0.08;-0.09;-0.75;-0.65;22;8092;-1112
15386;-0.08;-0.09;-0.75;-0.65;21;8091;-1114
15410;-0.08;-0.09;-0.75;-0.65;17;8093;-1121
15427;-0.08;-0.09;-0.75;-0.65;14;8096;-1121
15444;-0.08;-0.09;-0.75;-0.65;14;8096;-1121
15468;-0.08;-0.09;-0.75;-0.65;19;8096;-1111
15486;-0.08;-0.09;-0.75;-0.65;22;8095;-1110
15504;-0.08;-0.09;-0.75;-0.65;20;8094;-1109
16528;-0.08;-0.09;-0.75;-0.65;22;8095;-1108
16546;-0.08;-0.09;-0.75;-0.65;20;8096;-1110
16563;-0.08;-0.09;-0.75;-0.65;17;8096;-1111
16582;-0.08;-0.09;-0.75;-0.65;14;8096;-1118
16603;-0.08;-0.09;-0.75;-0.65;10;8098;-1124
16621;-0.08;-0.09;-0.75;-0.65;9;8101;-1122
16638;-0.08;-0.09;-0.75;-0.65;14;8098;-1122
16658;-0.08;-0.09;-0.75;-0.65;20;8095;-1119
16675;-0.08;-0.09;-0.75;-0.65;19;8097;-1124
16691;-0.08;-0.09;-0.75;-0.65;14;8095;-1123
16710;-0.08;-0.09;-0.75;-0.65;12;8090;-1125
16729;-0.08;-0.09;-0.75;-0.65;9;8088;-1129
16747;-0.08;-0.09;-0.75;-0.65;10;8090;-1125
16763;-0.08;-0.09;-0.75;-0.65;12;8091;-1120
16781;-0.08;-0.09;-0.75;-0.65;13;8095;-1120
16805;-0.08;-0.09;-0.75;-0.65;14;8094;-1114
16821;-0.08;-0.09;-0.75;-0.65;17;8092;-1120
16838;-0.08;-0.09;-0.75;-0.65;17;8094;-1114
16857;-0.08;-0.09;-0.75;-0.65;20;8094;-1114
16877;-0.08;-0.09;-0.75;-0.65;17;8095;-1120
16893;-0.08;-0.09;-0.75;-0.65;15;8096;-1121
16909;-0.08;-0.09;-0.75;-0.65;15;8092;-1114
16929;-0.08;-0.09;-0.75;-0.65;17;8094;-1112
16948;-0.08;-0.09;-0.75;-0.65;16;8099;-1114
16965;-0.08;-0.09;-0.75;-0.65;16;8097;-1111
16981;-0.08;-0.09;-0.75;-0.65;13;8096;-1111
17001;-0.08;-0.09;-0.75;-0.65;12;8099;-1108
17027;-0.08;-0.09;-0.75;-0.65;13;8097;-1122
17045;-0.08;-0.09;-0.75;-0.65;16;8096;-1114
17061;-0.08;-0.09;-0.75;-0.65;14;8095;-1118
17080;-0.08;-0.09;-0.75;-0.65;16;8101;-1121
17099;-0.08;-0.09;-0.75;-0.65;15;8107;-1114
17116;-0.08;-0.09;-0.75;-0.65;21;8105;-1112
17133;-0.08;-0.09;-0.75;-0.65;16;8099;-1108
17152;-0.08;-0.09;-0.75;-0.65;16;8097;-1108
17171;-0.08;-0.09;-0.75;-0.65;14;8099;-1106
17188;-0.08;-0.09;-0.75;-0.65;10;8100;-1111
17204;-0.08;-0.09;-0.75;-0.65;7;8099;-1122
17228;-0.08;-0.09;-0.75;-0.65;11;8099;-1123
17245;-0.08;-0.09;-0.75;-0.65;17;8100;-1120
17262;-0.08;-0.09;-0.75;-0.65;16;8097;-1115
17280;-0.08;-0.09;-0.75;-0.65;19;8097;-1112
17300;-0.08;-0.09;-0.75;-0.65;20;8098;-1116
17318;-0.08;-0.09;-0.75;-0.65;17;8098;-1119
17336;-0.08;-0.09;-0.75;-0.65;19;8096;-1132
17370;-0.08;-0.09;-0.75;-0.65;19;8097;-1133
17389;-0.08;-0.09;-0.75;-0.65;17;8099;-1123
17406;-0.08;-0.09;-0.75;-0.65;15;8100;-1125
17425;-0.08;-0.09;-0.75;-0.65;14;8102;-1124
17445;-0.08;-0.09;-0.75;-0.65;17;8102;-1123
17463;-0.08;-0.09;-0.75;-0.65;18;8101;-1112
17483;-0.08;-0.09;-0.75;-0.65;17;8097;-1111
17500;-0.08;-0.09;-0.75;-0.65;17;8097;-1110
17517;-0.08;-0.09;-0.75;-0.65;15;8095;-1108
17535;-0.08;-0.09;-0.75;-0.65;15;8095;-1106
17558;-0.08;-0.09;-0.75;-0.65;16;8091;-1115
17575;-0.08;-0.09;-0.75;-0.65;18;8095;-1117
17591;-0.08;-0.09;-0.75;-0.65;17;8098;-1122
17610;-0.08;-0.09;-0.75;-0.65;18;8096;-1123
17629;-0.08;-0.09;-0.75;-0.65;17;8098;-1122
17647;-0.08;-0.09;-0.75;-0.65;24;8097;-1119
17666;-0.08;-0.09;-0.75;-0.65;25;8104;-1117
17686;-0.08;-0.09;-0.75;-0.65;22;8103;-1117
17705;-0.08;-0.09;-0.75;-0.65;23;8100;-1109
17721;-0.08;-0.09;-0.75;-0.65;24;8099;-1110
17738;-0.08;-0.09;-0.75;-0.65;23;8095;-1114
17757;-0.08;-0.09;-0.75;-0.65;22;8096;-1117
17776;-0.08;-0.09;-0.75;-0.65;20;8100;-1119
17793;-0.08;-0.09;-0.75;-0.65;26;8100;-1117
17810;-0.08;-0.09;-0.75;-0.65;29;8098;-1113
17829;-0.08;-0.09;-0.75;-0.65;26;8104;-1119
17847;-0.08;-0.09;-0.75;-0.65;29;8105;-1117
17867;-0.08;-0.09;-0.75;-0.65;28;8105;-1118
17885;-0.08;-0.09;-0.75;-0.65;30;8098;-1120
17905;-0.08;-0.09;-0.75;-0.65;25;8095;-1118
17922;-0.08;-0.09;-0.75;-0.65;27;8096;-1108
17939;-0.08;-0.09;-0.75;-0.65;27;8094;-1110
17956;-0.08;-0.09;-0.75;-0.65;30;8092;-1110
17974;-0.08;-0.09;-0.75;-0.65;29;8093;-1109
17992;-0.08;-0.09;-0.75;-0.65;28;8096;-1108
18010;-0.08;-0.09;-0.75;-0.65;31;8098;-1111
18028;-0.08;-0.09;-0.75;-0.65;33;8100;-1113
18045;-0.08;-0.09;-0.75;-0.65;32;8101;-1124
18068;-0.08;-0.09;-0.75;-0.65;26;8096;-1122
18085;-0.08;-0.09;-0.75;-0.65;22;8096;-1119
18107;-0.08;-0.09;-0.75;-0.65;19;8094;-1109
18125;-0.08;-0.09;-0.75;-0.65;22;8091;-1108
18144;-0.08;-0.09;-0.75;-0.65;18;8091;-1106
18162;-0.08;-0.09;-0.75;-0.65;15;8092;-1109
18178;-0.08;-0.09;-0.75;-0.65;15;8096;-1110
18197;-0.08;-0.09;-0.75;-0.65;11;8094;-1113
18215;-0.08;-0.09;-0.75;-0.65;13;8093;-1113
18233;-0.08;-0.09;-0.75;-0.65;10;8094;-1108
18250;-0.08;-0.09;-0.75;-0.65;6;8095;-1106
18267;-0.08;-0.09;-0.75;-0.65;7;8094;-1107
18291;-0.08;-0.09;-0.75;-0.65;7;8094;-1111
18307;-0.08;-0.09;-0.75;-0.65;7;8092;-1112
18324;-0.08;-0.09;-0.75;-0.65;10;8090;-1115
18343;-0.08;-0.09;-0.75;-0.65;15;8094;-1115
18361;-0.08;-0.09;-0.75;-0.65;19;8093;-1110
18378;-0.08;-0.09;-0.75;-0.65;21;8093;-1100
18395;-0.08;-0.09;-0.75;-0.65;22;8092;-1107
18415;-0.08;-0.09;-0.75;-0.65;24;8091;-1110
18433;-0.08;-0.09;-0.75;-0.65;24;8092;-1113
18450;-0.08;-0.09;-0.75;-0.65;17;8096;-1111
18466;-0.08;-0.09;-0.75;-0.65;16;8098;-1108
18489;-0.08;-0.09;-0.75;-0.65;21;8103;-1115
18507;-0.08;-0.09;-0.75;-0.65;19;8103;-1122
18523;-0.08;-0.09;-0.75;-0.65;21;8098;-1122
18542;-0.08;-0.09;-0.75;-0.65;19;8095;-1123
18561;-0.08;-0.09;-0.75;-0.65;19;8094;-1125
18579;-0.08;-0.09;-0.75;-0.65;19;8094;-1125
18596;-0.08;-0.09;-0.75;-0.65;15;8095;-1121
18615;-0.08;-0.09;-0.75;-0.65;13;8095;-1121
18647;-0.08;-0.09;-0.75;-0.65;15;8096;-1127
18664;-0.08;-0.09;-0.75;-0.65;18;8096;-1123
18680;-0.08;-0.09;-0.75;-0.65;17;8098;-1125
18698;-0.08;-0.09;-0.75;-0.65;18;8101;-1129
18731;-0.08;-0.09;-0.75;-0.65;17;8100;-1128
18750;-0.08;-0.09;-0.75;-0.65;16;8100;-1126
18771;-0.08;-0.09;-0.75;-0.65;21;8101;-1120
18793;-0.08;-0.09;-0.75;-0.65;21;8099;-1115
18811;-0.08;-0.09;-0.75;-0.65;21;8096;-1116
18830;-0.08;-0.09;-0.75;-0.65;19;8095;-1121
18852;-0.08;-0.09;-0.75;-0.65;20;8099;-1127
18872;-0.08;-0.09;-0.75;-0.65;24;8098;-1120
18892;-0.08;-0.09;-0.75;-0.65;25;8100;-1118
18910;-0.08;-0.09;-0.75;-0.65;27;8096;-1119
18932;-0.08;-0.09;-0.75;-0.65;24;8094;-1119
18955;-0.08;-0.09;-0.75;-0.65;19;8092;-1121
18974;-0.08;-0.09;-0.75;-0.65;19;8092;-1125
18994;-0.08;-0.09;-0.75;-0.65;20;8091;-1117
19016;-0.08;-0.09;-0.75;-0.65;21;8092;-1116
19035;-0.08;-0.09;-0.75;-0.65;27;8092;-1121
19055;-0.08;-0.09;-0.75;-0.65;25;8089;-1122
19074;-0.08;-0.09;-0.75;-0.65;21;8091;-1120
19096;-0.08;-0.09;-0.75;-0.65;21;8091;-1112
19116;-0.08;-0.09;-0.75;-0.65;23;8092;-1116
19139;-0.08;-0.09;-0.75;-0.65;16;8091;-1119
19159;-0.08;-0.09;-0.75;-0.65;16;8090;-1126
19183;-0.08;-0.09;-0.75;-0.65;18;8088;-1128
19203;-0.08;-0.09;-0.75;-0.65;18;8086;-1129
19223;-0.08;-0.09;-0.75;-0.65;20;8089;-1133
19243;-0.08;-0.09;-0.75;-0.65;16;8095;-1131
19263;-0.08;-0.09;-0.75;-0.65;15;8093;-1127
19283;-0.08;-0.09;-0.75;-0.65;14;8094;-1123
19303;-0.08;-0.09;-0.75;-0.65;19;8091;-1121
19323;-0.08;-0.09;-0.75;-0.65;16;8093;-1118
19345;-0.08;-0.09;-0.75;-0.65;14;8094;-1115
19365;-0.08;-0.09;-0.75;-0.65;19;8091;-1115
19403;-0.08;-0.09;-0.75;-0.65;16;8096;-1111
19421;-0.08;-0.09;-0.75;-0.65;20;8099;-1107
19446;-0.08;-0.09;-0.75;-0.65;23;8102;-1115
19465;-0.08;-0.09;-0.75;-0.65;22;8099;-1123
19486;-0.08;-0.09;-0.75;-0.65;21;8101;-1126
20508;-0.08;-0.09;-0.75;-0.65;15;8098;-1118
20528;-0.08;-0.09;-0.75;-0.65;21;8097;-1131
20548;-0.08;-0.09;-0.75;-0.65;17;8095;-1132
20568;-0.08;-0.09;-0.75;-0.65;13;8093;-1127
20589;-0.08;-0.09;-0.75;-0.65;14;8095;-1120
20618;-0.08;-0.09;-0.75;-0.65;10;8098;-1128
20639;-0.08;-0.09;-0.75;-0.65;10;8098;-1130
20658;-0.08;-0.09;-0.75;-0.65;14;8099;-1127
20681;-0.08;-0.09;-0.75;-0.65;12;8095;-1128
20701;-0.08;-0.09;-0.75;-0.65;8;8094;-1133
20723;-0.08;-0.09;-0.75;-0.65;12;8091;-1129
20743;-0.08;-0.09;-0.75;-0.65;16;8090;-1127
20762;-0.08;-0.09;-0.75;-0.65;17;8095;-1123
20782;-0.08;-0.09;-0.75;-0.65;19;8090;-1129
20804;-0.08;-0.09;-0.75;-0.65;18;8090;-1124
20823;-0.08;-0.09;-0.75;-0.65;20;8089;-1121
20843;-0.08;-0.09;-0.75;-0.65;18;8090;-1119
20862;-0.08;-0.09;-0.75;-0.65;15;8094;-1122
20884;-0.08;-0.09;-0.75;-0.65;10;8095;-1125
20904;-0.08;-0.09;-0.75;-0.65;13;8095;-1120
20926;-0.08;-0.09;-0.75;-0.65;15;8095;-1118
20947;-0.08;-0.09;-0.75;-0.65;17;8091;-1120
20969;-0.08;-0.09;-0.75;-0.65;17;8097;-1123
20987;-0.08;-0.09;-0.75;-0.65;18;8102;-1118
21006;-0.08;-0.09;-0.75;-0.65;19;8100;-1119
21028;-0.08;-0.09;-0.75;-0.65;19;8096;-1121
21048;-0.08;-0.09;-0.75;-0.65;21;8099;-1121
21068;-0.08;-0.09;-0.75;-0.65;17;8101;-1127
21086;-0.08;-0.09;-0.75;-0.64;27387;17658;18640
21118;-0.08;-0.09;-0.75;-0.65;10;8092;-1105
21139;-0.08;-0.09;-0.75;-0.65;11;8093;-1103
21160;-0.08;-0.09;-0.75;-0.65;11;8089;-1108
21181;-0.08;-0.09;-0.75;-0.65;12;8089;-1107
21202;-0.08;-0.09;-0.75;-0.65;14;8093;-1108
21223;-0.08;-0.09;-0.75;-0.65;14;8093;-1105
21241;-0.08;-0.09;-0.75;-0.65;15;8097;-1110
21261;-0.08;-0.09;-0.75;-0.65;15;8099;-1112
21283;-0.08;-0.09;-0.75;-0.65;15;8099;-1115
21302;-0.08;-0.09;-0.75;-0.65;13;8099;-1118
21322;-0.08;-0.09;-0.75;-0.65;12;8100;-1124
21342;-0.08;-0.09;-0.75;-0.65;11;8101;-1130
21364;-0.08;-0.09;-0.75;-0.65;16;8099;-1129
21386;-0.08;-0.09;-0.75;-0.65;14;8099;-1121
21407;-0.08;-0.09;-0.75;-0.65;14;8096;-1117
21426;-0.08;-0.09;-0.75;-0.65;18;8097;-1111
21447;-0.08;-0.09;-0.75;-0.65;17;8098;-1106
21466;-0.08;-0.09;-0.75;-0.65;17;8099;-1111
21487;-0.08;-0.09;-0.75;-0.65;19;8096;-1112
21507;-0.08;-0.09;-0.75;-0.65;16;8096;-1114
21527;-0.08;-0.09;-0.75;-0.65;15;8097;-1116
21547;-0.08;-0.09;-0.75;-0.65;16;8097;-1112
21568;-0.08;-0.09;-0.75;-0.65;15;8099;-1106
21597;-0.08;-0.09;-0.75;-0.65;9;8097;-1118
21618;-0.08;-0.09;-0.75;-0.65;12;8097;-1116
21642;-0.08;-0.09;-0.75;-0.65;15;8098;-1111
21662;-0.08;-0.09;-0.75;-0.65;15;8096;-1107
21681;-0.08;-0.09;-0.75;-0.65;11;8097;-1108
21702;-0.08;-0.09;-0.75;-0.65;14;8099;-1114
21723;-0.08;-0.09;-0.75;-0.65;11;8095;-1117
21743;-0.08;-0.09;-0.75;-0.65;11;8096;-1116
21761;-0.08;-0.09;-0.75;-0.65;8;8097;-1116
21782;-0.08;-0.09;-0.75;-0.65;11;8094;-1125
21803;-0.08;-0.09;-0.75;-0.65;13;8096;-1120
21824;-0.08;-0.09;-0.75;-0.65;14;8097;-1115
21842;-0.08;-0.09;-0.75;-0.65;14;8097;-1115
21867;-0.08;-0.09;-0.75;-0.65;9;8094;-1122
21888;-0.08;-0.09;-0.75;-0.65;5;8094;-1125
21907;-0.08;-0.09;-0.75;-0.65;10;8094;-1117
21925;-0.08;-0.09;-0.75;-0.65;13;8092;-1118
21948;-0.08;-0.09;-0.75;-0.65;14;8095;-1123
21968;-0.08;-0.09;-0.75;-0.65;15;8095;-1126
21987;-0.08;-0.09;-0.75;-0.65;14;8093;-1126
22006;-0.08;-0.09;-0.75;-0.65;15;8095;-1126
22027;-0.08;-0.09;-0.75;-0.65;13;8096;-1124
22049;-0.08;-0.09;-0.75;-0.65;17;8096;-1121
22078;-0.08;-0.09;-0.75;-0.65;9;8095;-1117
22102;-0.08;-0.09;-0.75;-0.65;10;8094;-1118
22130;-0.08;-0.09;-0.75;-0.65;12;8095;-1118
22148;-0.08;-0.09;-0.75;-0.65;19;8096;-1112
22167;-0.08;-0.09;-0.75;-0.65;18;8098;-1110
22187;-0.08;-0.09;-0.75;-0.65;14;8096;-1116
22209;-0.08;-0.09;-0.75;-0.65;17;8096;-1121
22228;-0.08;-0.09;-0.75;-0.65;19;8097;-1123
22248;-0.08;-0.09;-0.75;-0.65;20;8098;-1118
22268;-0.08;-0.09;-0.75;-0.65;20;8095;-1122
22290;-0.08;-0.09;-0.75;-0.65;21;8092;-1119
22309;-0.08;-0.09;-0.75;-0.65;22;8092;-1113
22327;-0.08;-0.09;-0.75;-0.65;20;8095;-1111
22352;-0.08;-0.09;-0.75;-0.65;23;8096;-1104
22373;-0.08;-0.09;-0.75;-0.65;21;8098;-1105
22392;-0.08;-0.09;-0.75;-0.65;11;8095;-1110
22412;-0.08;-0.09;-0.75;-0.65;12;8094;-1115
22432;-0.08;-0.09;-0.75;-0.65;15;8096;-1114
22452;-0.08;-0.09;-0.75;-0.65;13;8097;-1108
22473;-0.08;-0.09;-0.75;-0.65;10;8096;-1108
22492;-0.08;-0.09;-0.75;-0.65;14;8094;-1118
22513;-0.08;-0.09;-0.75;-0.65;17;8094;-1125
22534;-0.08;-0.09;-0.75;-0.65;19;8100;-1127
22558;-0.08;-0.09;-0.75;-0.65;19;8087;-1118
22594;-0.08;-0.09;-0.75;-0.65;-6;8068;-1110
22614;-0.08;-0.09;-0.75;-0.65;5;8100;-1116
22634;-0.08;-0.09;-0.75;-0.65;28;8121;-1122
22654;-0.08;-0.09;-0.75;-0.65;20;8084;-1110
22674;-0.08;-0.09;-0.75;-0.65;-2;8066;-1104
22692;-0.08;-0.09;-0.75;-0.65;4;8103;-1115
22712;-0.08;-0.09;-0.75;-0.65;26;8121;-1119
22734;-0.08;-0.09;-0.75;-0.65;19;8084;-1106
22753;-0.08;-0.09;-0.75;-0.65;3;8069;-1104
22772;-0.08;-0.09;-0.75;-0.65;12;8104;-1119
22792;-0.08;-0.09;-0.75;-0.65;38;8104;-1122
22814;-0.08;-0.09;-0.75;-0.65;5;8095;-1116
22836;-0.08;-0.09;-0.75;-0.65;14;8091;-1111
22855;-0.08;-0.09;-0.75;-0.65;24;8099;-1112
22876;-0.08;-0.09;-0.75;-0.65;21;8098;-1112
22898;-0.08;-0.09;-0.75;-0.65;14;8091;-1115
22916;-0.08;-0.09;-0.75;-0.65;11;8089;-1117
22935;-0.08;-0.09;-0.75;-0.65;13;8096;-1112
22957;-0.08;-0.09;-0.75;-0.65;13;8098;-1115
22978;-0.08;-0.09;-0.75;-0.65;11;8092;-1117
22996;-0.08;-0.09;-0.75;-0.65;15;8090;-1118
23016;-0.08;-0.09;-0.75;-0.65;3705;-25763;-23094
23047;-0.08;-0.09;-0.75;-0.65;15;8099;-1126
23071;-0.08;-0.09;-0.75;-0.65;15;8100;-1126
23089;-0.08;-0.09;-0.75;-0.65;17;8101;-1127
23110;-0.08;-0.09;-0.75;-0.65;14;8102;-1127
23131;-0.08;-0.09;-0.75;-0.65;11;8098;-1123
23151;-0.08;-0.09;-0.75;-0.65;13;8100;-1121
23170;-0.08;-0.09;-0.75;-0.65;13;8102;-1116
23190;-0.08;-0.09;-0.75;-0.65;12;8100;-1123
23211;-0.08;-0.09;-0.75;-0.65;11;8095;-1118
23231;-0.08;-0.09;-0.75;-0.65;12;8091;-1119
23250;-0.08;-0.09;-0.75;-0.65;17;8093;-1119
23270;-0.08;-0.09;-0.75;-0.65;15;8093;-1120
23294;-0.08;-0.09;-0.75;-0.65;14;8091;-1120
23314;-0.08;-0.09;-0.75;-0.65;13;8092;-1117
23334;-0.08;-0.09;-0.75;-0.65;12;8092;-1120
23353;-0.08;-0.09;-0.75;-0.65;16;8090;-1124
23374;-0.08;-0.09;-0.75;-0.65;18;8097;-1120
23394;-0.08;-0.09;-0.75;-0.65;16;8097;-1121
23414;-0.08;-0.09;-0.75;-0.65;15;8096;-1117
23434;-0.08;-0.09;-0.75;-0.65;14;8099;-1114
23454;-0.08;-0.09;-0.75;-0.65;18;8099;-1114
23474;-0.08;-0.09;-0.75;-0.65;20;8094;-1114
23495;-0.08;-0.09;-0.75;-0.65;14;8090;-1114
23514;-0.08;-0.09;-0.75;-0.65;16;8093;-1117
23547;-0.08;-0.09;-0.75;-0.65;19;8102;-1122
23569;-0.08;-0.09;-0.75;-0.65;19;8105;-1121
23588;-0.08;-0.09;-0.75;-0.65;18;8103;-1119
23607;-0.08;-0.09;-0.75;-0.65;18;8102;-1118
23627;-0.08;-0.09;-0.75;-0.65;15;8102;-1111
23648;-0.08;-0.09;-0.75;-0.65;19;8102;-1110
23669;-0.08;-0.09;-0.75;-0.65;22;8104;-1113
23687;-0.08;-0.09;-0.75;-0.65;21;8101;-1115
23707;-0.08;-0.09;-0.75;-0.65;17;8101;-1118
23728;-0.08;-0.09;-0.75;-0.65;17;8103;-1114
24756;-0.08;-0.09;-0.75;-0.65;16;8092;-1116
24778;-0.08;-0.09;-0.75;-0.65;18;8096;-1116
24799;-0.08;-0.09;-0.75;-0.65;21;8100;-1122
24821;-0.08;-0.09;-0.75;-0.65;22;8095;-1120
24839;-0.08;-0.09;-0.75;-0.65;21;8097;-1111
24858;-0.08;-0.09;-0.75;-0.65;21;8097;-1111
24879;-0.08;-0.09;-0.75;-0.65;22;8099;-1109
24901;-0.08;-0.09;-0.75;-0.65;19;8103;-1112
24919;-0.08;-0.09;-0.75;-0.65;16;8102;-1116
24939;-0.08;-0.09;-0.75;-0.65;18;8101;-1122
24960;-0.08;-0.09;-0.75;-0.65;15;8101;-1122
24981;-0.08;-0.09;-0.75;-0.65;11;8101;-1124
25002;-0.08;-0.09;-0.75;-0.65;12;8099;-1124
25023;-0.08;-0.09;-0.75;-0.65;15;8096;-1129
25046;-0.08;-0.09;-0.75;-0.65;13;8092;-1117
25067;-0.08;-0.09;-0.75;-0.65;19;8093;-1115
25085;-0.08;-0.09;-0.75;-0.65;20;8096;-1115
25106;-0.08;-0.09;-0.75;-0.65;17;8097;-1113
25126;-0.08;-0.09;-0.75;-0.65;13;8099;-1108
25147;-0.08;-0.09;-0.75;-0.65;13;8096;-1105
25165;-0.08;-0.09;-0.75;-0.65;11;8095;-1107
25185;-0.08;-0.09;-0.75;-0.65;15;8096;-1103
25206;-0.08;-0.09;-0.75;-0.65;16;8100;-1105
25226;-0.08;-0.09;-0.75;-0.65;16;8100;-1108
25249;-0.08;-0.09;-0.75;-0.65;16;8101;-1108
25269;-0.08;-0.09;-0.75;-0.65;16;8100;-1116
25289;-0.08;-0.09;-0.75;-0.65;15;8099;-1112
25309;-0.08;-0.09;-0.75;-0.65;15;8102;-1111
25329;-0.08;-0.09;-0.75;-0.65;15;8101;-1111
25349;-0.08;-0.09;-0.75;-0.65;17;8097;-1115
25369;-0.08;-0.09;-0.75;-0.65;17;8094;-1113
25389;-0.08;-0.09;-0.75;-0.65;17;8092;-1106
25409;-0.08;-0.09;-0.75;-0.65;13;8090;-1108
25429;-0.08;-0.09;-0.75;-0.65;15;8089;-1106
25449;-0.08;-0.09;-0.75;-0.65;18;8094;-1105
25473;-0.08;-0.09;-0.75;-0.65;16;8095;-1115
25494;-0.08;-0.09;-0.75;-0.65;13;8099;-1113
25512;-0.08;-0.09;-0.75;-0.65;14;8100;-1110
25537;-0.08;-0.09;-0.75;-0.65;14;8096;-1105
25557;-0.08;-0.09;-0.75;-0.65;14;8098;-1107
25579;-0.08;-0.09;-0.75;-0.65;11;8099;-1106
25598;-0.08;-0.09;-0.75;-0.65;8;8100;-1110
25625;-0.08;-0.09;-0.75;-0.65;12;8101;-1113
25645;-0.08;-0.09;-0.75;-0.65;14;8100;-1118
25666;-0.08;-0.09;-0.75;-0.65;14;8099;-1117
25686;-0.08;-0.09;-0.75;-0.65;11;8098;-1113
25707;-0.08;-0.09;-0.75;-0.65;10;8096;-1112
25747;-0.08;-0.09;-0.75;-0.65;12;8097;-1114
25765;-0.08;-0.09;-0.75;-0.65;14;8100;-1115
25784;-0.08;-0.09;-0.75;-0.65;11;8094;-1115
25806;-0.08;-0.09;-0.75;-0.65;13;8094;-1116
25827;-0.08;-0.09;-0.75;-0.65;12;8091;-1120
25846;-0.08;-0.09;-0.75;-0.65;14;8092;-1117
25865;-0.08;-0.09;-0.75;-0.65;16;8091;-1122
25887;-0.08;-0.09;-0.75;-0.65;15;8094;-1118
25908;-0.08;-0.09;-0.75;-0.65;17;8092;-1121
25927;-0.08;-0.09;-0.75;-0.65;15;8091;-1123
25945;-0.08;-0.09;-0.75;-0.65;14;8093;-1122
25972;-0.08;-0.09;-0.75;-0.65;15;8096;-1123
25996;-0.08;-0.09;-0.75;-0.65;13;8100;-1110
26015;-0.08;-0.09;-0.75;-0.65;10;8100;-1114
26035;-0.08;-0.09;-0.75;-0.65;10;8102;-1113
26057;-0.08;-0.09;-0.75;-0.65;11;8099;-1119
26076;-0.08;-0.09;-0.75;-0.65;15;8098;-1119
26096;-0.08;-0.09;-0.75;-0.65;16;8097;-1117
26115;-0.08;-0.09;-0.75;-0.65;14;8101;-1115
26137;-0.08;-0.09;-0.75;-0.65;17;8107;-1119
26157;-0.08;-0.09;-0.75;-0.65;18;8108;-1114
26176;-0.08;-0.09;-0.75;-0.65;17;8107;-1115
26200;-0.08;-0.09;-0.75;-0.65;16;8102;-1117
26221;-0.08;-0.09;-0.75;-0.65;16;8101;-1121
26240;-0.08;-0.09;-0.75;-0.65;14;8096;-1121
26261;-0.08;-0.09;-0.75;-0.65;13;8098;-1115
26281;-0.08;-0.09;-0.75;-0.65;14;8096;-1119
26301;-0.08;-0.09;-0.75;-0.65;19;8095;-1119
26321;-0.08;-0.09;-0.75;-0.65;19;8097;-1117
26342;-0.08;-0.09;-0.75;-0.65;22;8096;-1116
26361;-0.08;-0.09;-0.75;-0.65;19;8094;-1122
26381;-0.08;-0.09;-0.75;-0.65;17;8095;-1117
26402;-0.08;-0.09;-0.75;-0.65;14;8096;-1111
26421;-0.08;-0.09;-0.75;-0.65;8;8098;-1115
26445;-0.08;-0.09;-0.75;-0.65;10;8100;-1118
26464;-0.07;0.00;0.49;-0.07;14109;1973;-829
26495;-0.08;-0.09;-0.75;-0.65;19;8094;-1118
26516;-0.08;-0.09;-0.75;-0.65;19;8096;-1115
26534;-0.08;-0.09;-0.75;-0.65;21;8096;-1114
26555;-0.08;-0.09;-0.75;-0.65;21;8098;-1114
26576;-0.08;-0.09;-0.75;-0.65;22;8097;-1118
26597;-0.08;-0.09;-0.75;-0.65;20;8093;-1115
26615;-0.08;-0.09;-0.75;-0.65;15;8090;-1122
26635;-0.08;-0.09;-0.75;-0.65;11;8088;-1121
26657;-0.08;-0.09;-0.75;-0.65;12;8086;-1127
26679;-0.08;-0.09;-0.75;-0.65;14;8089;-1127
26698;-0.08;-0.09;-0.75;-0.65;16;8090;-1129
26719;-0.08;-0.09;-0.75;-0.65;20;8092;-1122
26741;-0.08;-0.09;-0.75;-0.65;20;8091;-1113
26760;-0.08;-0.09;-0.75;-0.65;21;8091;-1113
26779;-0.08;-0.09;-0.75;-0.65;19;8090;-1121
26800;-0.08;-0.09;-0.75;-0.65;20;8095;-1124
26822;-0.08;-0.09;-0.75;-0.65;24;8095;-1126
26840;-0.08;-0.09;-0.75;-0.65;27;8097;-1128
26859;-0.08;-0.09;-0.75;-0.65;24;8096;-1126
26881;-0.08;-0.09;-0.75;-0.65;22;8095;-1121
26902;-0.08;-0.09;-0.75;-0.65;22;8095;-1120
26923;-0.08;-0.09;-0.75;-0.65;18;8097;-1118
26944;-0.08;-0.09;-0.75;-0.65;18;8095;-1115
26975;-0.08;-0.09;-0.75;-0.65;17;8092;-1115
26996;-0.08;-0.09;-0.75;-0.65;10;8096;-1115
27014;-0.08;-0.09;-0.75;-0.65;11;8093;-1116
27035;-0.08;-0.09;-0.75;-0.65;15;8087;-1111
27056;-0.08;-0.09;-0.75;-0.65;19;8086;-1110
27076;-0.08;-0.09;-0.75;-0.65;19;8089;-1110
27095;-0.08;-0.09;-0.75;-0.65;19;8088;-1115
27115;-0.08;-0.09;-0.75;-0.65;15;8090;-1114
27136;-0.08;-0.09;-0.75;-0.65;18;8090;-1120
27160;-0.08;-0.09;-0.75;-0.65;20;8091;-1118
27179;-0.08;-0.09;-0.75;-0.65;18;8094;-1116
27200;-0.08;-0.09;-0.75;-0.65;17;8095;-1114
27220;-0.08;-0.09;-0.75;-0.65;15;8091;-1117
27240;-0.08;-0.09;-0.75;-0.65;16;8088;-1115
27260;-0.08;-0.09;-0.75;-0.65;18;8087;-1121
27280;-0.08;-0.09;-0.75;-0.65;21;8089;-1117
27300;-0.08;-0.09;-0.75;-0.65;24;8087;-1121
27320;-0.08;-0.09;-0.75;-0.65;20;8083;-1119
27340;-0.08;-0.09;-0.75;-0.65;17;8082;-1108
27360;-0.08;-0.09;-0.75;-0.65;19;8085;-1113
27383;-0.08;-0.09;-0.75;-0.65;13;8090;-1117
27404;-0.08;-0.09;-0.75;-0.65;14;8094;-1112
27425;-0.08;-0.09;-0.75;-0.65;18;8099;-1110
27443;-0.08;-0.09;-0.75;-0.65;21;8096;-1108
27465;-0.08;-0.09;-0.75;-0.65;22;8098;-1116
27486;-0.08;-0.09;-0.75;-0.65;22;8098;-1119
27505;-0.08;-0.09;-0.75;-0.65;19;8097;-1122
27523;-0.08;-0.09;-0.75;-0.65;17;8097;-1125
27545;-0.08;-0.09;-0.75;-0.65;22;8099;-1121
27566;-0.08;-0.09;-0.75;-0.65;25;8099;-1118
27585;-0.08;-0.09;-0.75;-0.65;26;8098;-1110
27604;-0.08;-0.09;-0.75;-0.65;25;8100;-1109
27629;-0.08;-0.09;-0.75;-0.65;27;8099;-1111
27649;-0.08;-0.09;-0.75;-0.65;24;8099;-1116
27668;-0.08;-0.09;-0.75;-0.65;25;8100;-1111
27688;-0.08;-0.09;-0.75;-0.65;26;8099;-1112
27710;-0.08;-0.09;-0.75;-0.65;23;8098;-1112
27729;-0.08;-0.09;-0.75;-0.65;20;8099;-1117
27747;-0.08;-0.09;-0.75;-0.65;21;8096;-1118
27768;-0.08;-0.09;-0.75;-0.65;24;8095;-1117
27789;-0.08;-0.09;-0.75;-0.65;24;8093;-1123
27811;-0.08;-0.09;-0.75;-0.65;23;8097;-1125
27830;-0.08;-0.09;-0.75;-0.65;20;8094;-1123
27870;-0.08;-0.09;-0.75;-0.65;19;8089;-1118
27891;-0.08;-0.09;-0.75;-0.65;20;8086;-1116
27911;-0.08;-0.09;-0.75;-0.65;21;8087;-1114
27935;-0.08;-0.09;-0.75;-0.65;19;8095;-1114
27955;-0.08;-0.09;-0.75;-0.65;19;8092;-1116
27976;-0.08;-0.09;-0.75;-0.65;17;8095;-1116
29005;-0.08;-0.09;-0.75;-0.65;8;8093;-1128
29024;-0.08;-0.09;-0.75;-0.65;9;8095;-1128
29045;-0.08;-0.09;-0.75;-0.65;12;8095;-1125
29065;-0.08;-0.09;-0.75;-0.65;16;8097;-1119
29085;-0.08;-0.09;-0.75;-0.65;18;8096;-1120
29110;-0.08;-0.09;-0.75;-0.65;19;8096;-1122
29130;-0.08;-0.09;-0.75;-0.65;18;8093;-1120
29157;-0.08;-0.09;-0.75;-0.65;17;8094;-1117
29177;-0.08;-0.09;-0.75;-0.65;15;8095;-1119
29196;-0.08;-0.09;-0.75;-0.65;17;8096;-1123
29216;-0.08;-0.09;-0.75;-0.65;17;8094;-1118
29235;-0.08;-0.09;-0.75;-0.65;17;8091;-1109
29257;-0.08;-0.09;-0.75;-0.65;17;8093;-1107
29277;-0.08;-0.09;-0.75;-0.65;15;8094;-1106
29296;-0.08;-0.09;-0.75;-0.65;16;8096;-1104
29316;-0.08;-0.09;-0.75;-0.65;20;8097;-1111
29337;-0.08;-0.09;-0.75;-0.65;17;8099;-1119
29360;-0.08;-0.09;-0.75;-0.65;20;8099;-1122
29379;-0.08;-0.09;-0.75;-0.65;16;8101;-1124
29400;-0.08;-0.09;-0.75;-0.65;10;8099;-1118
29425;-0.08;-0.09;-0.75;-0.65;7;8099;-1123
29443;-0.08;-0.09;-0.75;-0.65;4;8099;-1120
29462;-0.08;-0.09;-0.75;-0.65;2;8098;-1117
29483;-0.08;-0.09;-0.75;-0.65;7;8101;-1115
29505;-0.08;-0.09;-0.75;-0.65;5;8101;-1118
29523;-0.08;-0.09;-0.75;-0.65;2;8098;-1122
29543;-0.08;-0.09;-0.75;-0.65;4;8096;-1119
29564;-0.08;-0.09;-0.75;-0.65;3;8096;-1118
29588;-0.08;-0.09;-0.75;-0.65;6;8095;-1115
29606;-0.08;-0.09;-0.75;-0.65;9;8091;-1113
29627;-0.08;-0.09;-0.75;-0.65;14;8097;-1118
29648;-0.08;-0.09;-0.75;-0.65;15;8101;-1125
29667;-0.08;-0.09;-0.75;-0.65;14;8102;-1127
29686;-0.08;-0.09;-0.75;-0.65;11;8100;-1125
29706;-0.08;-0.09;-0.75;-0.65;14;8097;-1126
29728;-0.08;-0.09;-0.75;-0.65;15;8095;-1124
29747;-0.08;-0.09;-0.75;-0.65;17;8094;-1113
29767;-0.08;-0.09;-0.75;-0.65;23;8097;-1110
29787;-0.08;-0.09;-0.75;-0.65;23;8097;-1116
29808;-0.08;-0.09;-0.75;-0.65;23;8102;-1113
29830;-0.08;-0.09;-0.75;-0.65;22;8095;-1109
29851;-0.08;-0.09;-0.75;-0.65;20;8096;-1107
29871;-0.08;-0.09;-0.75;-0.65;16;8094;-1104
29891;-0.08;-0.09;-0.75;-0.65;17;8095;-1109
29914;-0.08;-0.09;-0.75;-0.65;16;8091;-1121
29935;-0.08;-0.09;-0.75;-0.65;22;8092;-1124
29954;-0.08;-0.09;-0.75;-0.65;25;8092;-1122
29975;-0.08;-0.09;-0.75;-0.65;27;8099;-1117
29994;-0.08;-0.09;-0.75;-0.65;28;8097;-1113
30015;-0.08;-0.09;-0.75;-0.65;23;8095;-1116
30035;-0.08;-0.09;-0.75;-0.65;21;8099;-1113
30058;-0.08;-0.09;-0.75;-0.65;15;8096;-1114
30079;-0.08;-0.09;-0.75;-0.65;19;8096;-1115
30099;-0.08;-0.09;-0.75;-0.65;21;8091;-1109
30118;-0.08;-0.09;-0.75;-0.65;20;8091;-1103
30137;-0.08;-0.09;-0.75;-0.65;25;8092;-1106
30159;-0.08;-0.09;-0.75;-0.65;21;8092;-1103
30178;-0.08;-0.09;-0.75;-0.65;21;8095;-1106
30198;-0.08;-0.09;-0.75;-0.65;16;8096;-1111
30217;-0.08;-0.09;-0.75;-0.65;18;8094;-1106
30239;-0.08;-0.09;-0.75;-0.65;21;8094;-1112
30259;-0.08;-0.09;-0.75;-0.65;19;8093;-1120
30278;-0.08;-0.09;-0.75;-0.65;17;8093;-1121
30302;-0.08;-0.09;-0.75;-0.65;19;8092;-1120
30323;-0.08;-0.09;-0.75;-0.65;18;8093;-1121
30342;-0.08;-0.09;-0.75;-0.65;21;8092;-1119
30361;-0.08;-0.09;-0.75;-0.65;19;8093;-1117
30382;-0.08;-0.09;-0.75;-0.65;28837;-1250;-1462
30414;-0.08;-0.09;-0.75;-0.65;15;8098;-1116
30432;-0.08;-0.09;-0.75;-0.65;17;8097;-1120
30452;-0.08;-0.09;-0.75;-0.65;23;8095;-1118
30473;-0.08;-0.09;-0.75;-0.65;21;8101;-1116
30494;-0.08;-0.09;-0.75;-0.65;19;8101;-1121
30513;-0.08;-0.09;-0.75;-0.65;16;8102;-1123
30536;-0.08;-0.09;-0.75;-0.65;15;8100;-1124
30557;-0.08;-0.09;-0.75;-0.65;14;8101;-1119
30578;-0.08;-0.09;-0.75;-0.65;11;8095;-1112
30596;-0.08;-0.09;-0.75;-0.65;11;8096;-1108
30617;-0.08;-0.09;-0.75;-0.65;11;8098;-1114
30638;-0.08;-0.09;-0.75;-0.65;16;8100;-1109
30658;-0.08;-0.09;-0.75;-0.65;20;8097;-1105
30677;-0.08;-0.09;-0.75;-0.65;13;8092;-1105
30698;-0.08;-0.09;-0.75;-0.65;10;8091;-1109
30719;-0.08;-0.09;-0.75;-0.65;10;8089;-1109
30739;-0.08;-0.09;-0.75;-0.65;11;8092;-1118
30762;-0.08;-0.09;-0.75;-0.65;11;8098;-1124
30782;-0.08;-0.09;-0.75;-0.65;15;8101;-1116
30802;-0.08;-0.09;-0.75;-0.65;17;8097;-1111
30822;-0.08;-0.09;-0.75;-0.65;19;8097;-1109
30842;-0.08;-0.09;-0.75;-0.65;19;8097;-1105
30862;-0.08;-0.09;-0.75;-0.65;12;8098;-1103
30882;-0.08;-0.09;-0.75;-0.65;-12878;7668;19363
30903;-0.08;-0.09;-0.75;-0.65;17;8097;-1115
30924;-0.08;-0.09;-0.75;-0.65;18;8093;-1119
30944;-0.08;-0.09;-0.75;-0.65;20;8094;-1117
30966;-0.08;-0.09;-0.75;-0.65;21;8092;-1120
30986;-0.08;-0.09;-0.75;-0.65;27;8090;-1121
31029;-0.08;-0.09;-0.75;-0.65;24;8094;-1119
31048;-0.08;-0.09;-0.75;-0.65;20;8094;-1110
31068;-0.08;-0.09;-0.75;-0.65;19;8093;-1108
31090;-0.08;-0.09;-0.75;-0.65;16;8093;-1111
31109;-0.08;-0.09;-0.75;-0.65;16;8092;-1108
31129;-0.08;-0.09;-0.75;-0.65;16;8094;-1109
31149;-0.08;-0.09;-0.75;-0.65;16;8095;-1108
31170;-0.08;-0.09;-0.75;-0.65;17;8095;-1114
31190;-0.08;-0.09;-0.75;-0.65;15;8098;-1119
31209;-0.08;-0.09;-0.75;-0.65;14;8098;-1112
31229;-0.08;-0.09;-0.75;-0.65;13;8095;-1109
31255;-0.08;-0.09;-0.75;-0.65;13;8091;-1111
31273;-0.08;-0.09;-0.75;-0.65;12;8094;-1113
31293;-0.08;-0.09;-0.75;-0.65;10;8093;-1111
31314;-0.08;-0.09;-0.75;-0.65;12;8091;-1110
31335;-0.08;-0.09;-0.75;-0.65;13;8093;-1110
31364;-0.08;-0.09;-0.75;-0.65;22;8100;-1126
31383;-0.08;-0.09;-0.75;-0.65;19;8100;-1128
31404;-0.08;-0.09;-0.75;-0.65;17;8100;-1121
31426;-0.08;-0.09;-0.75;-0.65;18;8098;-1122
31444;-0.08;-0.09;-0.75;-0.65;15;8100;-1120
31463;-0.08;-0.09;-0.75;-0.65;10;8099;-1121
31488;-0.08;-0.09;-0.75;-0.65;19;8093;-1124
31509;-0.08;-0.09;-0.75;-0.65;18;8089;-1127
31527;-0.08;-0.09;-0.75;-0.65;15;8091;-1120
31548;-0.08;-0.09;-0.75;-0.65;16;8092;-1122
31569;-0.08;-0.09;-0.75;-0.65;12;8091;-1124
31590;-0.08;-0.09;-0.75;-0.65;14;8092;-1123
31609;-0.08;-0.09;-0.75;-0.65;15;8093;-1125
31630;-0.08;-0.09;-0.75;-0.65;11;8097;-1119
31658;-0.08;-0.09;-0.75;-0.65;13;8100;-1118
31677;-0.08;-0.09;-0.75;-0.65;17;8101;-1118
31696;-0.08;-0.09;-0.75;-0.65;19;8099;-1113
31715;-0.08;-0.09;-0.75;-0.65;20;8096;-1109
31740;-0.08;-0.09;-0.75;-0.65;17;8094;-1110
31761;-0.08;-0.09;-0.75;-0.65;22;8091;-1111
31780;-0.08;-0.09;-0.75;-0.65;21;8097;-1118
31800;-0.08;-0.09;-0.75;-0.65;19;8093;-1113
31821;-0.08;-0.09;-0.75;-0.65;13;8090;-1109
31843;-0.08;-0.09;-0.75;-0.65;18;8090;-1121
31864;-0.08;-0.09;-0.75;-0.65;20;8089;-1117
31884;-0.08;-0.09;-0.75;-0.65;21;8088;-1124
31904;-0.08;-0.09;-0.75;-0.65;20;8089;-1119
31924;-0.08;-0.09;-0.75;-0.65;20;8091;-1119
31945;-0.08;-0.09;-0.75;-0.65;21;8092;-1113
31967;-0.08;-0.09;-0.75;-0.65;15;8096;-1118
31988;-0.08;-0.09;-0.75;-0.65;11;8097;-1118
32008;-0.08;-0.09;-0.75;-0.65;12;8099;-1123
32029;-0.08;-0.09;-0.75;-0.65;19;8099;-1115
32047;-0.08;-0.09;-0.75;-0.65;20;8097;-1124
32068;-0.08;-0.09;-0.75;-0.65;24;8095;-1124
32089;-0.08;-0.09;-0.75;-0.65;29;8098;-1122
32109;-0.08;-0.09;-0.75;-0.65;25;8097;-1119
32128;-0.08;-0.09;-0.75;-0.65;21;8094;-1111
32148;-0.08;-0.09;-0.75;-0.65;17;8094;-1115
32169;-0.08;-0.09;-0.75;-0.65;15;8093;-1110
32192;-0.08;-0.09;-0.75;-0.65;17;8093;-1113
32211;-0.08;-0.09;-0.75;-0.65;20;8092;-1113
33233;-0.07;-0.07;-0.75;-0.66;-66;8170;-980
33254;-0.07;-0.07;-0.75;-0.66;-39;8169;-995
33272;-0.07;-0.07;-0.75;-0.66;-17;8108;-1025
33291;-0.07;-0.07;-0.75;-0.66;-8;8038;-1064
33313;-0.07;-0.07;-0.75;-0.66;-9;8031;-1104
33343;-0.07;-0.08;-0.75;-0.66;-30;8070;-1068
33362;-0.07;-0.08;-0.75;-0.66;-33;8056;-1077
33381;-0.07;-0.08;-0.75;-0.66;-31;8045;-1085
33402;-0.07;-0.08;-0.75;-0.66;-32;8053;-1063
33424;-0.07;-0.08;-0.75;-0.66;-31;8078;-1033
33445;-0.07;-0.08;-0.75;-0.66;-16;8097;-1014
33464;-0.07;-0.08;-0.75;-0.66;5;8096;-993
33486;-0.07;-0.08;-0.75;-0.66;14;8077;-973
33505;-0.07;-0.08;-0.75;-0.66;7;8061;-974
33525;-0.07;-0.08;-0.75;-0.66;4;8057;-972
33544;-0.07;-0.08;-0.75;-0.66;16;8067;-967
33566;-0.07;-0.08;-0.75;-0.66;28;8084;-974
33585;-0.07;-0.08;-0.75;-0.66;26;8111;-997
33605;-0.07;-0.08;-0.75;-0.66;23;8151;-997
33624;-0.07;-0.08;-0.75;-0.66;22;8181;-983
33646;-0.07;-0.08;-0.75;-0.66;14;8185;-973
33668;-0.07;-0.08;-0.75;-0.66;9;8176;-978
33689;-0.07;-0.08;-0.75;-0.66;9;8173;-992
33708;-0.07;-0.08;-0.75;-0.66;9;8180;-1027
33729;-0.07;-0.08;-0.75;-0.66;28;8183;-1067
33748;-0.07;-0.08;-0.75;-0.66;63;8165;-1105
33769;-0.07;-0.08;-0.75;-0.66;71;8123;-1142
33788;-0.07;-0.08;-0.75;-0.66;72;8082;-1147
33809;-0.07;-0.08;-0.75;-0.66;57;8062;-1151
33832;-0.07;-0.08;-0.75;-0.66;-35;8120;-997
33853;-0.07;-0.08;-0.75;-0.66;-36;8075;-1027
33872;-0.07;-0.08;-0.75;-0.66;-20;8034;-1066
33893;-0.07;-0.08;-0.75;-0.66;-1;7995;-1112
33917;-0.07;-0.08;-0.75;-0.66;21;7977;-1134
33937;-0.07;-0.08;-0.75;-0.66;19;7976;-1117
33955;-0.07;-0.08;-0.75;-0.66;16;8009;-1071
33975;-0.07;-0.08;-0.75;-0.66;0;8065;-1021
33997;-0.07;-0.08;-0.75;-0.66;-13;8104;-990
34016;-0.07;-0.08;-0.75;-0.66;-4;8091;-1003
34035;-0.07;-0.08;-0.75;-0.66;20;8052;-1073
34055;-0.07;-0.08;-0.75;-0.66;44;8013;-1141
34077;-0.07;-0.08;-0.75;-0.66;52;7998;-1193
34096;-0.07;-0.08;-0.75;-0.66;58;8036;-1182
34117;-0.07;-0.08;-0.75;-0.66;48;8098;-1118
34160;-0.07;-0.08;-0.75;-0.66;38;8150;-1049
34180;-0.07;-0.08;-0.75;-0.66;22;8179;-1023
34199;-0.07;-0.08;-0.75;-0.66;17;8185;-1017
34219;-0.07;-0.08;-0.75;-0.66;5;8188;-1024
34241;-0.07;-0.08;-0.75;-0.66;-9;8196;-1032
34260;-0.07;-0.08;-0.75;-0.66;-15;8187;-1038
34279;-0.07;-0.08;-0.75;-0.66;-16;8167;-1051
34302;-0.07;-0.08;-0.75;-0.65;83;8071;-1158
34324;-0.07;-0.08;-0.75;-0.65;69;8067;-1145
34344;-0.07;-0.08;-0.75;-0.65;51;8090;-1095
34363;-0.07;-0.08;-0.75;-0.65;19;8137;-1048
34383;-0.07;-0.08;-0.75;-0.65;3;8199;-1006
34401;-0.07;-0.08;-0.75;-0.65;6;8231;-971
34422;-0.07;-0.08;-0.75;-0.65;14;8199;-981
34440;-0.07;-0.08;-0.75;-0.65;31;8137;-1033
34461;-0.07;-0.08;-0.75;-0.65;53;8083;-1091
34482;-0.07;-0.08;-0.75;-0.66;55;8044;-1117
34502;-0.07;-0.08;-0.75;-0.66;56;8043;-1128
34520;-0.07;-0.08;-0.75;-0.66;63;8074;-1152
34541;-0.07;-0.08;-0.75;-0.65;83;8114;-1185
34562;-0.07;-0.08;-0.75;-0.65;88;8136;-1208
34582;-0.07;-0.08;-0.75;-0.65;86;8143;-1216
34601;-0.07;-0.08;-0.75;-0.65;72;8132;-1202
34625;-0.07;-0.08;-0.75;-0.65;61;8107;-1187
34645;-0.07;-0.08;-0.75;-0.65;62;8090;-1169
34665;-0.07;-0.08;-0.75;-0.65;69;8073;-1157
34685;-0.07;-0.08;-0.75;-0.65;78;8045;-1162
34705;-0.07;-0.08;-0.75;-0.65;90;7995;-1174
34725;-0.07;-0.08;-0.75;-0.65;80;7946;-1186
34745;-0.07;-0.08;-0.75;-0.65;57;7972;-1221
34765;-0.07;-0.08;-0.75;-0.65;47;8049;-1218
34793;-0.07;-0.08;-0.75;-0.65;21;8084;-1122
34812;-0.07;-0.08;-0.75;-0.65;23;8034;-1111
34833;-0.07;-0.08;-0.75;-0.65;16;7993;-1092
34856;-0.07;-0.08;-0.75;-0.65;4;7974;-1087
34876;-0.07;-0.08;-0.75;-0.65;4;7971;-1090
34895;-0.07;-0.08;-0.75;-0.65;7;7977;-1090
34917;-0.07;-0.08;-0.75;-0.65;5;7990;-1099
34936;-0.07;-0.08;-0.75;-0.66;12;8020;-1097
34955;-0.07;-0.08;-0.75;-0.66;17;8062;-1078
34975;-0.07;-0.08;-0.75;-0.66;30;8089;-1066
34996;-0.07;-0.08;-0.75;-0.66;36;8095;-1066
35016;-0.07;-0.08;-0.75;-0.66;33;8084;-1066
35035;-0.07;-0.08;-0.75;-0.66;24;8050;-1066
35055;-0.07;-0.08;-0.75;-0.66;22;8018;-1076
35076;-0.07;-0.08;-0.75;-0.66;28;8008;-1097
35101;-0.07;-0.08;-0.75;-0.66;33;8035;-1104
35120;-0.07;-0.08;-0.75;-0.66;41;8092;-1095
35148;-0.07;-0.08;-0.75;-0.66;27;8141;-1069
35168;-0.07;-0.08;-0.75;-0.66;5;8183;-1031
35187;-0.07;-0.08;-0.75;-0.66;0;8200;-1021
35205;-0.07;-0.08;-0.75;-0.66;1;8168;-1024
35228;-0.07;-0.08;-0.75;-0.66;1;8104;-1046
35248;-0.07;-0.08;-0.75;-0.66;0;8063;-1101
35271;-0.07;-0.08;-0.75;-0.66;-3;8149;-1012
35289;-0.07;-0.08;-0.75;-0.66;-2;8158;-991
35311;-0.07;-0.08;-0.75;-0.66;10;8130;-995
35334;-0.07;-0.08;-0.75;-0.66;14;8096;-1015
35354;-0.07;-0.08;-0.75;-0.66;9;8086;-1032
35374;-0.07;-0.08;-0.75;-0.66;13;8113;-1020
35396;-0.07;-0.08;-0.75;-0.66;18;8167;-997
35415;-0.07;-0.08;-0.75;-0.66;24;8232;-989
35434;-0.07;-0.08;-0.75;-0.66;35;8274;-993
35454;-0.07;-0.08;-0.75;-0.66;40;8269;-995
35476;-0.07;-0.08;-0.75;-0.66;33;8221;-991
35495;-0.07;-0.08;-0.75;-0.66;28;8134;-991
35515;-0.07;-0.08;-0.75;-0.66;27;8050;-1027
35534;-0.07;-0.08;-0.75;-0.66;36;8008;-1085
35555;-0.07;-0.08;-0.75;-0.66;41;8027;-1111
35579;-0.07;-0.08;-0.75;-0.66;42;8068;-1086
35598;-0.07;-0.08;-0.75;-0.66;30;8113;-1097
35619;-0.07;-0.08;-0.75;-0.66;22;8155;-1106
35639;-0.07;-0.08;-0.75;-0.66;20;8173;-1107
35659;-0.07;-0.08;-0.75;-0.66;7;8188;-1127
35679;-0.07;-0.08;-0.75;-0.66;-1;8193;-1140
35699;-0.07;-0.08;-0.75;-0.66;2;8168;-1143
35719;-0.07;-0.08;-0.75;-0.66;13;8115;-1151
35748;-0.07;-0.08;-0.75;-0.66;22;8086;-1077
35768;-0.07;-0.08;-0.75;-0.66;22;8072;-1116
35789;-0.07;-0.08;-0.75;-0.66;15;8082;-1111
35811;-0.07;-0.08;-0.75;-0.66;4;8101;-1073
35833;-0.07;-0.08;-0.75;-0.66;-5;8115;-1007
35853;-0.07;-0.08;-0.75;-0.66;-9;8137;-969
35872;-0.07;-0.08;-0.75;-0.66;3;8147;-972
35892;-0.07;-0.08;-0.75;-0.66;15;8129;-998
35914;-0.07;-0.08;-0.75;-0.66;11;8106;-1032
35933;-0.07;-0.08;-0.75;-0.66;8;8097;-1037
35952;-0.07;-0.08;-0.75;-0.66;10;8106;-1011
35972;-0.07;-0.08;-0.75;-0.66;0;8112;-987
35994;-0.07;-0.08;-0.75;-0.66;-16;8110;-964
36013;-0.07;-0.08;-0.75;-0.66;-18;8091;-962
36033;-0.07;-0.08;-0.75;-0.66;-16;8051;-980
36057;-0.07;-0.08;-0.75;-0.66;-23;8012;-1022
36078;-0.07;-0.08;-0.75;-0.66;-45;7997;-1049
36097;-0.07;-0.08;-0.75;-0.66;-51;8032;-1054
36116;-0.07;-0.08;-0.75;-0.66;-44;8100;-1050
36137;-0.07;-0.08;-0.75;-0.66;-30;8157;-1028
36159;-0.07;-0.08;-0.75;-0.66;-16;8170;-997
36177;-0.07;-0.08;-0.75;-0.66;-21;8133;-980
36197;-0.07;-0.08;-0.75;-0.66;-24;8079;-976
36233;-0.07;-0.08;-0.75;-0.66;-56;8142;-1022
36254;-0.07;-0.08;-0.75;-0.66;-63;8136;-1013
36274;-0.07;-0.08;-0.75;-0.66;-61;8126;-993
36317;-0.07;-0.08;-0.75;-0.66;-46;8102;-967
36337;-0.07;-0.08;-0.75;-0.66;-50;8096;-958
36357;-0.07;-0.08;-0.74;-0.66;-51;8111;-972
36378;-0.07;-0.08;-0.74;-0.66;-43;8139;-987
36397;-0.07;-0.08;-0.74;-0.66;-35;8173;-991
36418;-0.07;-0.08;-0.74;-0.66;-30;8190;-994
36437;-0.07;-0.08;-0.74;-0.66;-33;8181;-987
36458;-0.07;-0.08;-0.74;-0.66;-37;8157;-964
