t;w;x;y;z;ax;ay;az
1024;0.01;0.05;-1.00;0.01;111;-146;-8699
1042;0.01;0.05;-1.00;0.01;111;-145;-8700
1059;0.01;0.05;-1.00;0.01;114;-141;-8705
1076;0.01;0.05;-1.00;0.01;109;-142;-8703
1094;0.01;0.05;-1.00;0.01;103;-140;-8700
1112;0.01;0.05;-1.00;0.01;103;-144;-8700
1128;0.01;0.05;-1.00;0.01;105;-145;-8700
1146;0.01;0.05;-1.00;0.01;99;-145;-8701
1165;0.01;0.05;-1.00;0.01;98;-141;-8694
1182;0.01;0.05;-1.00;0.01;97;-139;-8694
1199;0.01;0.05;-1.00;0.01;105;-140;-8696
1216;0.01;0.05;-1.00;0.01;105;-141;-8686
1239;0.01;0.05;-1.00;0.01;106;-145;-8683
1256;0.01;0.05;-1.00;0.01;107;-144;-8685
1274;0.01;0.05;-1.00;0.01;107;-144;-8686
1291;0.01;0.05;-1.00;0.01;108;-145;-8685
1309;0.01;0.05;-1.00;0.01;110;-142;-8685
1327;0.01;0.05;-1.00;0.01;110;-142;-8687
1344;0.01;0.05;-1.00;0.01;115;-147;-8689
1362;0.01;0.05;-1.00;0.01;113;-149;-8696
1380;0.01;0.05;-1.00;0.01;118;-147;-8695
1397;0.01;0.05;-1.00;0.01;120;-146;-8696
1415;0.01;0.05;-1.00;0.01;120;-142;-8694
1432;0.01;0.05;-1.00;0.01;124;-141;-8688
1453;0.01;0.05;-1.00;0.01;119;-144;-8686
1472;0.01;0.05;-1.00;0.01;118;-142;-8687
1490;0.01;0.05;-1.00;0.01;119;-141;-8692
1506;0.01;0.05;-1.00;0.01;117;-141;-8696
1523;0.01;0.05;-1.00;0.01;113;-140;-8695
1543;0.01;0.05;-1.00;0.01;108;-138;-8694
1560;0.01;0.05;-1.00;0.01;110;-139;-8691
1584;0.01;0.05;-1.00;0.01;114;-136;-8693
1601;0.01;0.05;-1.00;0.01;114;-142;-8694
1621;0.01;0.05;-1.00;0.01;113;-145;-8696
1638;0.01;0.05;-1.00;0.01;109;-148;-8702
1654;0.01;0.05;-1.00;0.01;106;-148;-8705
1672;0.01;0.05;-1.00;0.01;106;-150;-8709
1694;0.01;0.05;-1.00;0.01;103;-145;-8703
1711;0.01;0.05;-1.00;0.01;107;-145;-8702
1727;0.01;0.05;-1.00;0.01;109;-141;-8706
1747;0.01;0.05;-1.00;0.01;110;-141;-8700
1765;0.01;0.05;-1.00;0.01;108;-144;-8698
1781;0.01;0.05;-1.00;0.01;108;-147;-8696
1798;0.01;0.05;-1.00;0.01;110;-150;-8696
1817;0.01;0.05;-1.00;0.01;109;-148;-8692
1836;0.01;0.05;-1.00;0.01;109;-149;-8688
1852;0.01;0.05;-1.00;0.01;107;-146;-8684
1868;0.01;0.05;-1.00;0.01;106;-142;-8691
1888;0.01;0.05;-1.00;0.01;103;-139;-8690
1909;0.01;0.05;-1.00;0.01;102;-145;-8695
1926;0.01;0.05;-1.00;0.01;99;-147;-8694
1943;0.01;0.05;-1.00;0.01;95;-140;-8700
1963;0.01;0.05;-1.00;0.01;100;-138;-8695
1980;0.01;0.05;-1.00;0.01;99;-138;-8697
1996;0.01;0.05;-1.00;0.01;101;-137;-8694
2015;0.01;0.05;-1.00;0.01;106;-141;-8687
2033;0.01;0.05;-1.00;0.01;110;-141;-8684
2051;0.01;0.05;-1.00;0.01;110;-144;-8680
2067;0.01;0.05;-1.00;0.01;108;-145;-8682
2086;0.01;0.05;-1.00;0.01;109;-143;-8683
2104;0.01;0.05;-1.00;0.01;109;-143;-8691
2134;0.01;0.05;-1.00;0.01;115;-135;-8698
2151;0.01;0.05;-1.00;0.01;118;-135;-8698
2168;0.01;0.05;-1.00;0.01;111;-140;-8697
2187;0.01;0.05;-1.00;0.01;111;-143;-8700
2204;0.01;0.05;-1.00;0.01;110;-142;-8692
2222;0.01;0.05;-1.00;0.01;105;-142;-8691
2240;0.01;0.05;-1.00;0.01;104;-140;-8687
2258;0.01;0.05;-1.00;0.01;104;-134;-8682
2275;0.01;0.05;-1.00;0.01;104;-135;-8688
2293;0.01;0.05;-1.00;0.01;107;-137;-8692
2311;0.01;0.05;-1.00;0.01;106;-140;-8692
2328;0.01;0.05;-1.00;0.01;108;-142;-8690
2351;0.01;0.05;-1.00;0.01;107;-145;-8690
2369;0.01;0.05;-1.00;0.01;108;-148;-8690
2389;0.01;0.05;-1.00;0.01;108;-146;-8691
2413;0.01;0.05;-1.00;0.01;109;-146;-8689
2473;0.01;0.05;-1.00;0.01;113;-139;-8687
2489;0.01;0.05;-1.00;0.01;113;-139;-8690
2505;0.01;0.05;-1.00;0.01;105;-137;-8687
2523;0.01;0.05;-1.00;0.01;101;-140;-8686
2542;0.01;0.05;-1.00;0.01;103;-139;-8685
2560;0.01;0.05;-1.00;0.01;106;-140;-8684
2576;0.01;0.05;-1.00;0.01;108;-145;-8685
2594;0.01;0.05;-1.00;0.01;109;-144;-8689
2623;0.01;0.05;-1.00;0.01;101;-139;-8690
2638;0.01;0.05;-1.00;0.01;105;-136;-8698
2655;0.01;0.05;-1.00;0.01;109;-139;-8700
2673;0.01;0.05;-1.00;0.01;116;-139;-8698
2692;0.01;0.05;-1.00;0.01;115;-135;-8701
2709;0.01;0.05;-1.00;0.01;116;-135;-8696
2726;0.01;0.05;-1.00;0.01;115;-137;-8698
2744;0.01;0.05;-1.00;0.01;115;-140;-8701
2762;0.01;0.05;-1.00;0.01;113;-142;-8696
2781;0.01;0.05;-1.00;0.01;113;-144;-8692
2797;0.01;0.05;-1.00;0.01;115;-144;-8695
2815;0.01;0.05;-1.00;0.01;116;-142;-8689
2834;0.01;0.05;-1.00;0.01;121;-140;-8691
2855;0.01;0.05;-1.00;0.01;115;-141;-8696
2871;0.01;0.05;-1.00;0.01;113;-143;-8699
2889;0.01;0.05;-1.00;0.01;114;-140;-8692
2909;0.01;0.05;-1.00;0.01;112;-140;-8696
2925;0.01;0.05;-1.00;0.01;113;-140;-8695
2942;0.01;0.05;-1.00;0.01;110;-139;-8697
2961;0.01;0.05;-1.00;0.01;108;-139;-8694
2979;0.01;0.05;-1.00;0.01;111;-140;-8687
2996;0.01;0.05;-1.00;0.01;105;-140;-8683
3012;0.01;0.05;-1.00;0.01;98;-139;-8684
3032;0.01;0.05;-1.00;0.01;103;-141;-8680
3050;0.01;0.05;-1.00;0.01;104;-141;-8686
3070;0.01;0.05;-1.00;0.01;102;-140;-8688
3088;0.01;0.05;-1.00;0.01;101;-142;-8688
3106;0.01;0.05;-1.00;0.01;106;-144;-8691
3124;0.01;0.05;-1.00;0.01;108;-142;-8691
3140;0.01;0.05;-1.00;0.01;107;-145;-8697
3159;0.01;0.05;-1.00;0.01;110;-147;-8696
3183;0.01;0.05;-1.00;0.01;116;-141;-8696
3201;0.01;0.05;-1.00;0.01;113;-139;-8698
3217;0.01;0.05;-1.00;0.01;113;-138;-8691
3234;0.01;0.05;-1.00;0.01;114;-140;-8689
3254;0.01;0.05;-1.00;0.01;114;-139;-8692
3271;0.01;0.05;-1.00;0.01;117;-139;-8696
3292;0.01;0.05;-1.00;0.01;112;-139;-8693
3309;0.01;0.05;-1.00;0.01;110;-140;-8690
3328;0.01;0.05;-1.00;0.01;108;-139;-8693
3345;0.01;0.05;-1.00;0.01;108;-139;-8692
3363;0.01;0.05;-1.00;0.01;105;-138;-8690
3381;0.01;0.05;-1.00;0.01;106;-138;-8692
3398;0.01;0.05;-1.00;0.01;109;-137;-8700
3416;0.01;0.05;-1.00;0.01;106;-135;-8704
3434;0.01;0.05;-1.00;0.01;109;-139;-8702
3452;0.01;0.05;-1.00;0.01;108;-140;-8700
3469;0.01;0.05;-1.00;0.01;113;-141;-8700
3486;0.01;0.05;-1.00;0.01;112;-144;-8692
3509;0.01;0.05;-1.00;0.01;113;-146;-8696
3525;0.01;0.05;-1.00;0.01;111;-147;-8695
3543;0.01;0.05;-1.00;0.01;102;-144;-8694
3562;0.01;0.05;-1.00;0.01;103;-146;-8694
3580;0.01;0.05;-1.00;0.01;107;-146;-8692
3596;0.01;0.05;-1.00;0.01;110;-145;-8689
3613;0.01;0.05;-1.00;0.01;106;-144;-8700
3633;0.01;0.05;-1.00;0.01;107;-142;-8704
3650;0.01;0.05;-1.00;0.01;105;-138;-8699
3667;0.01;0.05;-1.00;0.01;104;-141;-8698
3684;0.01;0.05;-1.00;0.01;102;-140;-8700
3703;0.01;0.05;-1.00;0.01;102;-137;-8697
3732;0.01;0.05;-1.00;0.01;102;-148;-8699
3749;0.01;0.05;-1.00;0.01;104;-147;-8701
3768;0.01;0.05;-1.00;0.01;100;-147;-8699
3786;0.01;0.05;-1.00;0.01;99;-148;-8703
3803;0.01;0.05;-1.00;0.01;101;-151;-8700
3819;0.01;0.05;-1.00;0.01;103;-149;-8694
3839;0.01;0.05;-1.00;0.01;104;-152;-8689
3857;0.01;0.05;-1.00;0.01;112;-149;-8691
3873;0.01;0.05;-1.00;0.01;116;-147;-8690
4892;0.01;0.05;-1.00;0.01;104;-142;-8687
4911;0.01;0.05;-1.00;0.01;107;-145;-8685
4930;0.01;0.05;-1.00;0.01;112;-150;-8684
4947;0.01;0.05;-1.00;0.01;111;-144;-8675
4967;0.01;0.05;-1.00;0.01;112;-140;-8675
4986;0.01;0.05;-1.00;0.01;115;-137;-8676
5003;0.01;0.05;-1.00;0.01;113;-134;-8679
5019;0.01;0.05;-1.00;0.01;113;-134;-8687
5037;0.01;0.05;-1.00;0.01;115;-134;-8695
5056;0.01;0.05;-1.00;0.01;114;-132;-8699
5074;0.01;0.05;-1.00;0.01;115;-135;-8696
5090;0.01;0.05;-1.00;0.01;113;-135;-8687
5107;0.01;0.05;-1.00;0.01;106;-137;-8688
5127;0.01;0.05;-1.00;0.01;106;-142;-8684
5145;0.01;0.05;-1.00;0.01;110;-141;-8688
5163;0.01;0.05;-1.00;0.01;110;-140;-8692
5226;0.01;0.05;-1.00;0.01;110;-138;-8691
5252;0.01;0.05;-1.00;0.01;104;-144;-8697
5269;0.01;0.05;-1.00;0.01;103;-143;-8688
5288;0.01;0.05;-1.00;0.01;106;-140;-8693
5305;0.01;0.05;-1.00;0.01;103;-138;-8685
5322;0.01;0.05;-1.00;0.01;102;-140;-8683
5340;0.01;0.05;-1.00;0.01;105;-143;-8688
5358;0.01;0.05;-1.00;0.01;110;-142;-8683
5376;0.01;0.05;-1.00;0.01;113;-143;-8683
5393;0.01;0.05;-1.00;0.01;112;-145;-8687
5410;0.01;0.05;-1.00;0.01;114;-146;-8687
5428;0.01;0.05;-1.00;0.01;114;-145;-8681
5448;0.01;0.05;-1.00;0.01;113;-144;-8682
5467;0.01;0.05;-1.00;0.01;113;-139;-8682
5485;0.01;0.05;-1.00;0.01;112;-138;-8683
5503;0.01;0.05;-1.00;0.01;105;-137;-8683
5519;0.01;0.05;-1.00;0.01;102;-137;-8687
5536;0.01;0.05;-1.00;0.01;106;-137;-8691
5556;0.01;0.05;-1.00;0.01;102;-138;-8692
5573;0.01;0.05;-1.00;0.01;105;-140;-8687
5590;0.01;0.05;-1.00;0.01;103;-139;-8684
5607;0.01;0.05;-1.00;0.01;106;-143;-8694
5627;0.01;0.05;-1.00;0.01;108;-147;-8698
5645;0.01;0.05;-1.00;0.01;109;-145;-8700
5665;0.01;0.05;-1.00;0.01;112;-146;-8699
5691;0.01;0.05;-1.00;0.01;113;-143;-8695
5708;0.01;0.05;-1.00;0.01;114;-138;-8694
5725;0.01;0.05;-1.00;0.01;112;-137;-8692
5741;0.01;0.05;-1.00;0.01;113;-141;-8698
5761;0.01;0.05;-1.00;0.01;114;-146;-8694
5779;0.01;0.05;-1.00;0.01;109;-145;-8696
5802;0.01;0.05;-1.00;0.01;115;-145;-8690
5818;0.01;0.05;-1.00;0.01;109;-148;-8687
5837;0.01;0.05;-1.00;0.01;109;-145;-8684
5856;0.01;0.05;-1.00;0.01;111;-148;-8681
5872;0.01;0.05;-1.00;0.01;111;-145;-8687
5893;0.01;0.05;-1.00;0.01;109;-146;-8685
5912;0.01;0.05;-1.00;0.01;106;-146;-8683
5930;0.01;0.05;-1.00;0.01;104;-144;-8678
5946;0.01;0.05;-1.00;0.01;109;-142;-8681
5963;0.01;0.05;-1.00;0.01;111;-140;-8691
5983;0.01;0.05;-1.00;0.01;108;-140;-8690
6000;0.01;0.05;-1.00;0.01;107;-140;-8679
6017;0.01;0.05;-1.00;0.01;109;-142;-8685
6034;0.01;0.05;-1.00;0.01;111;-140;-8682
6054;0.01;0.05;-1.00;0.01;114;-138;-8687
6071;0.01;0.05;-1.00;0.01;115;-137;-8692
6087;0.01;0.05;-1.00;0.01;115;-145;-8688
6105;0.01;0.05;-1.00;0.01;114;-150;-8687
6126;0.01;0.05;-1.00;0.01;112;-146;-8693
6145;0.01;0.05;-1.00;0.01;110;-145;-8692
6162;0.01;0.05;-1.00;0.01;106;-143;-8697
6179;0.01;0.05;-1.00;0.01;110;-139;-8691
6197;0.01;0.05;-1.00;0.01;105;-141;-8692
6215;0.01;0.05;-1.00;0.01;108;-139;-8684
6233;0.01;0.05;-1.00;0.01;107;-142;-8692
6250;0.01;0.05;-1.00;0.01;108;-142;-8691
6268;0.01;0.05;-1.00;0.01;108;-142;-8690
6286;0.01;0.05;-1.00;0.01;110;-139;-8689
6303;0.01;0.05;-1.00;0.01;107;-138;-8688
6321;0.01;0.05;-1.00;0.01;108;-139;-8688
6352;0.01;0.05;-1.00;0.01;103;-134;-8679
6370;0.01;0.05;-1.00;0.01;104;-133;-8677
6387;0.01;0.05;-1.00;0.01;107;-138;-8682
6404;0.01;0.05;-1.00;0.01;105;-139;-8687
6422;0.01;0.05;-1.00;0.01;109;-137;-8693
6441;0.01;0.05;-1.00;0.01;112;-136;-8693
6458;0.01;0.05;-1.00;0.01;114;-132;-8693
6474;0.01;0.05;-1.00;0.01;110;-134;-8692
6493;0.01;0.05;-1.00;0.01;108;-135;-8689
6511;0.01;0.05;-1.00;0.01;110;-138;-8690
6529;0.01;0.05;-1.00;0.01;109;-138;-8690
6545;0.01;0.05;-1.00;0.01;110;-136;-8698
6568;0.01;0.05;-1.00;0.01;110;-138;-8702
6586;0.01;0.05;-1.00;0.01;112;-139;-8706
6602;0.01;0.05;-1.00;0.01;110;-141;-8704
6619;0.01;0.05;-1.00;0.01;114;-140;-8705
6638;0.01;0.05;-1.00;0.01;114;-135;-8707
6657;0.01;0.05;-1.00;0.01;108;-135;-8706
6674;0.01;0.05;-1.00;0.01;108;-136;-8702
6690;0.01;0.05;-1.00;0.01;107;-135;-8695
6709;0.01;0.05;-1.00;0.01;111;-132;-8688
6728;0.01;0.05;-1.00;0.01;115;-134;-8682
6745;0.01;0.05;-1.00;0.01;115;-137;-8682
6761;0.01;0.05;-1.00;0.01;114;-139;-8683
6784;0.01;0.05;-1.00;0.01;112;-140;-8683
6802;0.01;0.05;-1.00;0.01;110;-143;-8687
6818;0.01;0.05;-1.00;0.01;108;-141;-8683
6836;0.01;0.05;-1.00;0.01;114;-140;-8687
6855;0.01;0.05;-1.00;0.01;112;-144;-8689
6874;0.01;0.05;-1.00;0.01;111;-143;-8689
6901;0.01;0.05;-1.00;0.01;112;-139;-8705
6962;0.01;0.05;-1.00;0.01;108;-138;-8703
6980;0.01;0.05;-1.00;0.01;104;-141;-8702
6998;0.01;0.05;-1.00;0.01;104;-146;-8696
7014;0.01;0.05;-1.00;0.01;104;-146;-8691
7032;0.01;0.05;-1.00;0.01;107;-142;-8693
7054;0.01;0.05;-1.00;0.01;106;-140;-8699
7071;0.01;0.05;-1.00;0.01;111;-139;-8695
7090;0.01;0.05;-1.00;0.01;113;-138;-8701
7107;0.01;0.05;-1.00;0.01;110;-144;-8699
7126;0.01;0.05;-1.00;0.01;103;-138;-8698
7143;0.01;0.05;-1.00;0.01;104;-135;-8700
7160;0.01;0.05;-1.00;0.01;104;-134;-8692
7179;0.01;0.05;-1.00;0.01;107;-138;-8693
7196;0.01;0.05;-1.00;0.01;108;-140;-8687
7214;0.01;0.05;-1.00;0.01;108;-139;-8687
7232;0.01;0.05;-1.00;0.01;113;-137;-8692
7250;0.01;0.05;-1.00;0.01;114;-138;-8692
7268;0.01;0.05;-1.00;0.01;113;-143;-8690
7290;0.01;0.05;-1.00;0.01;109;-137;-8695
7307;0.01;0.05;-1.00;0.01;107;-137;-8692
7323;0.01;0.05;-1.00;0.01;106;-136;-8694
7342;0.01;0.05;-1.00;0.01;105;-137;-8699
7360;0.01;0.05;-1.00;0.01;108;-134;-8699
7379;0.01;0.05;-1.00;0.01;111;-132;-8699
7401;0.01;0.05;-1.00;0.01;111;-145;-8699
7419;0.01;0.05;-1.00;0.01;107;-145;-8702
7438;0.01;0.05;-1.00;0.01;111;-143;-8703
7455;0.01;0.05;-1.00;0.01;113;-146;-8702
7472;0.01;0.05;-1.00;0.01;110;-142;-8702
7490;0.01;0.05;-1.00;0.01;111;-141;-8703
7513;0.01;0.05;-1.00;0.01;111;-136;-8705
7530;0.01;0.05;-1.00;0.01;109;-135;-8705
7547;0.01;0.05;-1.00;0.01;110;-137;-8705
7566;0.01;0.05;-1.00;0.01;115;-137;-8701
7584;0.01;0.05;-1.00;0.01;112;-135;-8698
7601;0.01;0.05;-1.00;0.01;114;-133;-8695
7617;0.01;0.05;-1.00;0.01;117;-133;-8697
7637;0.01;0.05;-1.00;0.01;113;-137;-8700
7656;0.01;0.05;-1.00;0.01;111;-139;-8699
7672;0.01;0.05;-1.00;0.01;110;-135;-8701
7689;0.01;0.05;-1.00;0.01;110;-133;-8701
7708;0.01;0.05;-1.00;0.01;114;-135;-8703
7730;0.01;0.05;-1.00;0.01;116;-130;-8695
7746;0.01;0.05;-1.00;0.01;115;-132;-8693
7764;0.01;0.05;-1.00;0.01;114;-134;-8695
7783;0.01;0.05;-1.00;0.01;110;-138;-8702
7800;0.01;0.05;-1.00;0.01;112;-143;-8703
8820;0.01;0.05;-1.00;0.01;112;-134;-8690
8838;0.01;0.05;-1.00;0.01;111;-136;-8684
8857;0.01;0.05;-1.00;0.01;107;-134;-8680
8875;0.01;0.05;-1.00;0.01;107;-136;-8683
8893;0.01;0.05;-1.00;0.01;108;-140;-8680
8912;0.01;0.05;-1.00;0.01;109;-143;-8684
8935;0.01;0.05;-1.00;0.01;110;-142;-8685
8960;0.01;0.05;-1.00;0.01;104;-141;-8691
8978;0.01;0.05;-1.00;0.01;102;-144;-8692
8995;0.01;0.05;-1.00;0.01;107;-142;-8689
9014;0.01;0.05;-1.00;0.01;110;-144;-8687
9031;0.01;0.05;-1.00;0.01;109;-144;-8689
9049;0.01;0.05;-1.00;0.01;108;-146;-8690
9067;0.01;0.05;-1.00;0.01;109;-146;-8689
9085;0.01;0.05;-1.00;0.01;111;-140;-8689
9102;0.01;0.05;-1.00;0.01;110;-140;-8683
9120;0.01;0.05;-1.00;0.01;114;-145;-8685
9138;0.01;0.05;-1.00;0.01;115;-142;-8688
9156;0.01;0.05;-1.00;0.01;113;-144;-8693
9178;0.01;0.05;-1.00;0.01;108;-142;-8697
9195;0.01;0.05;-1.00;0.01;110;-143;-8695
9212;0.01;0.05;-1.00;0.01;112;-144;-8694
9230;0.01;0.05;-1.00;0.01;112;-148;-8698
9248;0.01;0.05;-1.00;0.01;112;-142;-8700
9267;0.01;0.05;-1.00;0.01;112;-142;-8699
9283;0.01;0.05;-1.00;0.01;110;-140;-8694
9301;0.01;0.05;-1.00;0.01;109;-141;-8696
9320;0.01;0.05;-1.00;0.01;111;-145;-8694
9338;0.01;0.05;-1.00;0.01;113;-143;-8687
9354;0.01;0.05;-1.00;0.01;112;-144;-8684
9371;0.01;0.05;-1.00;0.01;110;-143;-8681
9391;0.01;0.05;-1.00;0.01;109;-145;-8686
9411;0.01;0.05;-1.00;0.01;109;-147;-8690
9428;0.01;0.05;-1.00;0.01;106;-147;-8687
9447;0.01;0.05;-1.00;0.01;111;-146;-8688
9466;0.01;0.05;-1.00;0.01;112;-146;-8691
9482;0.01;0.05;-1.00;0.01;115;-145;-8689
9498;0.01;0.05;-1.00;0.01;-21818;-29406;97
9520;0.01;0.05;-1.00;0.01;108;-144;-8694
9538;0.01;0.05;-1.00;0.01;110;-147;-8695
9555;0.01;0.05;-1.00;0.01;110;-150;-8688
9571;0.01;0.05;-1.00;0.01;108;-150;-8688
9590;0.01;0.05;-1.00;0.01;106;-145;-8682
9609;0.01;0.05;-1.00;0.01;105;-140;-8682
9631;0.01;0.05;-1.00;0.01;110;-138;-8688
9683;0.01;0.05;-1.00;0.01;110;-139;-8687
9701;0.01;0.05;-1.00;0.01;109;-142;-8691
9718;0.01;0.05;-1.00;0.01;115;-140;-8689
9736;0.01;0.05;-1.00;0.01;115;-140;-8691
9753;0.01;0.05;-1.00;0.01;114;-136;-8683
9772;0.01;0.05;-1.00;0.01;111;-137;-8678
9789;0.01;0.05;-1.00;0.01;108;-137;-8678
9806;0.01;0.05;-1.00;0.01;107;-138;-8682
9824;0.01;0.05;-1.00;0.01;108;-141;-8684
9842;0.01;0.05;-1.00;0.01;111;-141;-8693
9860;0.01;0.05;-1.00;0.01;111;-143;-8689
9881;0.01;0.05;-1.00;0.01;106;-142;-8694
9898;0.01;0.05;-1.00;0.01;106;-144;-8691
9916;0.01;0.05;-1.00;0.01;104;-140;-8692
9934;0.01;0.05;-1.00;0.01;96;-140;-8690
9952;0.01;0.05;-1.00;0.01;101;-139;-8689
9968;0.01;0.05;-1.00;0.01;103;-141;-8691
9986;0.01;0.05;-1.00;0.01;106;-139;-8693
10005;0.01;0.05;-1.00;0.01;107;-134;-8695
10030;0.01;0.05;-1.00;0.01;107;-133;-8684
10046;0.01;0.05;-1.00;0.01;112;-132;-8686
10065;0.01;0.05;-1.00;0.01;112;-135;-8687
10083;0.01;0.05;-1.00;0.01;110;-134;-8686
10103;0.01;0.05;-1.00;0.01;109;-133;-8688
10120;0.01;0.05;-1.00;0.01;109;-136;-8694
10139;0.01;0.05;-1.00;0.01;109;-138;-8687
10158;0.01;0.05;-1.00;0.01;114;-139;-8687
10174;0.01;0.05;-1.00;0.01;115;-141;-8688
10190;0.01;0.05;-1.00;0.01;115;-144;-8679
10210;0.01;0.05;-1.00;0.01;111;-143;-8676
10228;0.01;0.05;-1.00;0.01;110;-144;-8675
10245;0.01;0.05;-1.00;0.01;107;-144;-8679
10261;0.01;0.05;-1.00;0.01;107;-144;-8680
10281;0.01;0.05;-1.00;0.01;112;-142;-8679
10299;0.01;0.05;-1.00;0.01;108;-142;-8683
10318;0.01;0.05;-1.00;0.01;110;-144;-8688
10336;0.01;0.05;-1.00;0.01;110;-142;-8691
10355;0.01;0.05;-1.00;0.01;114;-143;-8691
10373;0.01;0.05;-1.00;0.01;113;-143;-8696
10389;0.01;0.05;-1.00;0.01;112;-141;-8691
10408;0.01;0.05;-1.00;0.01;108;-144;-8702
10426;0.01;0.05;-1.00;0.01;106;-145;-8704
10443;0.01;0.05;-1.00;0.01;111;-145;-8694
10460;0.01;0.05;-1.00;0.01;110;-147;-8694
10478;0.01;0.05;-1.00;0.01;107;-142;-8700
10497;0.01;0.05;-1.00;0.01;106;-144;-8706
10514;0.01;0.05;-1.00;0.01;107;-147;-8695
10536;0.01;0.05;-1.00;0.01;110;-144;-8700
10553;0.01;0.05;-1.00;0.01;107;-143;-8699
10580;0.01;0.05;-1.00;0.01;111;-143;-8701
10597;0.01;0.05;-1.00;0.01;110;-144;-8702
10614;0.01;0.05;-1.00;0.01;111;-142;-8705
10632;0.01;0.05;-1.00;0.01;110;-142;-8701
10650;0.01;0.05;-1.00;0.01;111;-140;-8694
10668;0.01;0.05;-1.00;0.01;108;-138;-8697
10685;0.01;0.05;-1.00;0.01;112;-138;-8695
10702;0.01;0.05;-1.00;0.01;107;-135;-8692
10721;0.01;0.05;-1.00;0.01;102;-131;-8694
10738;0.01;0.05;-1.00;0.01;101;-130;-8698
10760;0.01;0.05;-1.00;0.01;103;-134;-8696
10776;0.01;0.05;-1.00;0.01;105;-137;-8696
10795;0.01;0.05;-1.00;0.01;104;-137;-8691
10813;0.01;0.05;-1.00;0.01;103;-138;-8682
10830;0.01;0.05;-1.00;0.01;106;-138;-8686
10847;0.01;0.05;-1.00;0.01;107;-137;-8687
10865;0.01;0.05;-1.00;0.01;104;-140;-8691
10884;0.01;0.05;-1.00;0.01;106;-139;-8696
10902;0.01;0.05;-1.00;0.01;111;-141;-8693
10919;0.01;0.05;-1.00;0.01;106;-144;-8696
10936;0.01;0.05;-1.00;0.01;104;-143;-8693
10954;0.01;0.05;-1.00;0.01;100;-141;-8689
10975;0.01;0.05;-1.00;0.01;101;-143;-8690
10991;0.01;0.05;-1.00;0.01;103;-147;-8696
11011;0.01;0.05;-1.00;0.01;103;-144;-8701
11029;0.01;0.05;-1.00;0.01;103;-143;-8699
11046;0.01;0.05;-1.00;0.01;103;-141;-8698
11062;0.01;0.05;-1.00;0.01;108;-141;-8700
11081;0.01;0.05;-1.00;0.01;112;-145;-8697
11100;0.01;0.05;-1.00;0.01;113;-143;-8700
11118;0.01;0.05;1.22;-1.86;14527;5540;-30204
11139;0.01;0.05;-1.00;0.01;96;-139;-8688
11162;0.01;0.05;-1.00;0.01;100;-138;-8688
11183;0.01;0.05;-1.00;0.01;108;-138;-8697
11199;0.01;0.05;-1.00;0.01;111;-139;-8697
11217;0.01;0.05;-1.00;0.01;110;-142;-8706
11236;0.01;0.05;-1.00;0.01;110;-141;-8699
11253;0.01;0.05;-1.00;0.01;113;-143;-8692
11270;0.01;0.05;-1.00;0.01;115;-142;-8696
11288;0.01;0.05;-1.00;0.01;111;-140;-8693
11307;0.01;0.05;-1.00;0.01;109;-140;-8688
11326;0.01;0.05;-1.00;0.01;106;-141;-8681
11344;0.01;0.05;-1.00;0.01;104;-138;-8683
11396;0.01;0.05;-1.00;0.01;104;-141;-8679
11413;0.01;0.05;-1.00;0.01;101;-141;-8676
11436;0.01;0.05;-1.00;0.01;103;-141;-8682
11453;0.01;0.05;-1.00;0.01;102;-137;-8688
11469;0.01;0.05;-1.00;0.01;101;-141;-8689
11488;0.01;0.05;-1.00;0.01;101;-140;-8690
11507;0.01;0.05;-1.00;0.01;100;-144;-8697
11525;0.01;0.05;-1.00;0.01;105;-145;-8696
11541;0.01;0.05;-1.00;0.01;105;-140;-8697
11559;0.01;0.05;-1.00;0.01;107;-143;-8693
11578;0.01;0.05;-1.00;0.01;103;-139;-8695
11595;0.01;0.05;-1.00;0.01;105;-137;-8699
11612;0.01;0.05;-1.00;0.01;107;-134;-8700
11638;0.01;0.05;-1.00;0.01;108;-134;-8697
11662;0.01;0.05;-1.00;0.01;109;-135;-8693
11678;0.01;0.05;-1.00;0.01;110;-137;-8697
11695;0.01;0.05;-1.00;0.01;108;-140;-8695
11714;0.01;0.05;-1.00;0.01;110;-146;-8693
12738;0.01;0.05;-1.00;0.01;109;-143;-8687
12755;0.01;0.05;-1.00;0.01;112;-144;-8688
12772;0.01;0.05;-1.00;0.01;112;-142;-8685
12790;0.01;0.05;-1.00;0.01;107;-145;-8684
12810;0.01;0.05;-1.00;0.01;111;-147;-8688
12826;0.01;0.05;-1.00;0.01;106;-148;-8688
12843;0.01;0.05;-1.00;0.01;107;-149;-8688
12862;0.01;0.05;-1.00;0.01;112;-146;-8687
12884;0.01;0.05;-1.00;0.01;117;-144;-8687
12900;0.01;0.05;-1.00;0.01;119;-140;-8690
12918;0.01;0.05;-1.00;0.01;122;-137;-8693
12937;0.01;0.05;-1.00;0.01;123;-140;-8692
12955;0.01;0.05;-1.00;0.01;121;-139;-8702
12972;0.01;0.05;-1.00;0.01;122;-140;-8711
12989;0.01;0.05;-1.00;0.01;117;-140;-8702
13009;0.01;0.05;-1.00;0.01;118;-141;-8699
13026;0.01;0.05;-1.00;0.01;116;-138;-8705
13042;0.01;0.05;-1.00;0.01;112;-135;-8708
13061;0.01;0.05;-1.00;0.01;109;-134;-8709
13079;0.01;0.05;-1.00;0.01;112;-134;-8705
13100;0.01;0.05;-1.00;0.01;112;-137;-8712
13118;0.01;0.05;-1.00;0.01;109;-141;-8711
13136;0.01;0.05;-1.00;0.01;113;-143;-8705
13154;0.01;0.05;-1.00;0.01;112;-141;-8704
13171;0.01;0.05;-1.00;0.01;108;-135;-8703
13198;0.01;0.05;-1.00;0.01;124;-136;-8689
13216;0.01;0.05;-1.00;0.01;118;-135;-8691
13234;0.01;0.05;-1.00;0.01;118;-137;-8695
13251;0.01;0.05;-1.00;0.01;122;-138;-8696
13270;0.01;0.05;-1.00;0.01;115;-141;-8700
13287;0.01;0.05;-1.00;0.01;114;-138;-8695
13306;0.01;0.05;-1.00;0.01;112;-139;-8693
13327;0.01;0.05;-1.00;0.01;115;-138;-8693
13344;0.01;0.05;-1.00;0.01;112;-137;-8693
13362;0.01;0.05;-1.00;0.01;111;-140;-8692
13379;0.01;0.05;-1.00;0.01;115;-139;-8689
13399;0.01;0.05;-1.00;0.01;109;-141;-8690
13416;0.01;0.05;-1.00;0.01;108;-141;-8686
13432;0.01;0.05;-1.00;0.01;112;-142;-8689
13450;0.01;0.05;-1.00;0.01;109;-143;-8691
13469;0.01;0.05;-1.00;0.01;110;-144;-8693
13487;0.01;0.05;-1.00;0.01;112;-146;-8692
13503;0.01;0.05;-1.00;0.01;116;-146;-8689
13522;0.01;0.05;-1.00;0.01;115;-143;-8693
13544;0.01;0.05;-1.00;0.01;112;-146;-8704
13562;0.01;0.05;-1.00;0.01;112;-143;-8696
13578;0.01;0.05;-1.00;0.01;111;-141;-8693
13597;0.01;0.05;-1.00;0.01;110;-142;-8695
13616;0.01;0.05;-1.00;0.01;108;-149;-8701
13632;0.01;0.05;-1.00;0.01;108;-147;-8699
13649;0.01;0.05;-1.00;0.01;112;-148;-8700
13668;0.01;0.05;-1.00;0.01;113;-150;-8698
13687;0.01;0.05;-1.00;0.01;111;-152;-8698
13704;0.01;0.05;-1.00;0.01;107;-148;-8696
13720;0.01;0.05;-1.00;0.01;110;-146;-8698
13748;0.01;0.05;-1.00;0.01;112;-149;-8698
13769;0.01;0.05;-1.00;0.01;112;-148;-8701
13786;0.01;0.05;-1.00;0.01;110;-147;-8701
13804;0.01;0.05;-1.00;0.01;112;-147;-8701
13823;0.01;0.05;-1.00;0.01;115;-144;-8700
13841;0.01;0.05;-1.00;0.01;116;-140;-8707
13857;0.01;0.05;-1.00;0.01;113;-137;-8699
13875;0.01;0.05;-1.00;0.01;111;-137;-8702
13894;0.01;0.05;-1.00;0.01;106;-141;-8705
13912;0.01;0.05;-1.00;0.01;109;-139;-8705
13928;0.01;0.05;-1.00;0.01;110;-140;-8706
13946;0.01;0.05;-1.00;0.01;108;-142;-8709
13965;0.01;0.05;-1.00;0.01;109;-141;-8700
13985;0.01;0.05;-1.00;0.01;108;-139;-8699
14003;0.01;0.05;-1.00;0.01;112;-139;-8698
14020;0.01;0.05;-1.00;0.01;114;-142;-8696
14040;0.01;0.05;-1.00;0.01;114;-140;-8702
14208;0.01;0.05;-1.00;0.01;114;-139;-8701
14336;0.01;0.05;-1.00;0.01;111;-139;-8703
14353;0.01;0.05;-1.00;0.01;111;-135;-8703
14371;0.01;0.05;-1.00;0.01;114;-134;-8701
14389;0.01;0.05;-1.00;0.01;115;-136;-8700
14406;0.01;0.05;-1.00;0.01;114;-135;-8701
14424;0.01;0.05;-1.00;0.01;114;-133;-8703
14442;0.01;0.05;-1.00;0.01;116;-135;-8698
14464;0.01;0.05;-1.00;0.01;119;-136;-8697
14481;0.01;0.05;-1.00;0.01;115;-139;-8698
14497;0.01;0.05;-1.00;0.01;107;-141;-8695
14516;0.01;0.05;-1.00;0.01;114;-139;-8689
14534;0.01;0.05;-1.00;0.01;110;-141;-8691
14552;0.01;0.05;-1.00;0.01;110;-137;-8692
14568;0.01;0.05;-1.00;0.01;109;-137;-8695
14587;0.01;0.05;-1.00;0.01;114;-138;-8695
14605;0.01;0.05;-1.00;0.01;118;-141;-8697
14627;0.01;0.05;-1.00;0.01;107;-146;-8695
14645;0.01;0.05;-1.00;0.01;107;-148;-8688
14667;0.01;0.05;-1.00;0.01;111;-148;-8696
14689;0.01;0.05;-1.00;0.01;112;-148;-8696
14705;0.01;0.05;-1.00;0.01;109;-150;-8698
14722;0.01;0.05;-1.00;0.01;108;-150;-8698
14741;0.01;0.05;-1.00;0.01;104;-145;-8695
14761;0.01;0.05;-1.00;0.01;105;-144;-8697
14777;0.01;0.05;-1.00;0.01;106;-142;-8701
14793;0.01;0.05;-1.00;0.01;107;-136;-8701
14812;0.01;0.05;-1.00;0.01;113;-136;-8698
14831;0.01;0.05;-1.00;0.01;118;-139;-8695
14848;0.01;0.05;-1.00;0.01;114;-141;-8697
14864;0.01;0.05;-1.00;0.01;113;-140;-8699
14888;0.01;0.05;-1.00;0.01;117;-137;-8697
14905;0.01;0.05;-1.00;0.01;119;-141;-8695
14921;0.01;0.05;-1.00;0.01;117;-138;-8691
14939;0.01;0.05;-1.00;0.01;113;-141;-8699
14958;0.01;0.05;-1.00;0.01;118;-143;-8697
14976;0.01;0.05;-1.00;0.01;115;-145;-8697
14992;0.01;0.05;-1.00;0.01;115;-144;-8689
15010;0.01;0.05;-1.00;0.01;112;-146;-8694
15029;0.01;0.05;-1.00;0.01;114;-142;-8692
15046;0.01;0.05;-1.00;0.01;114;-145;-8692
15063;0.01;0.05;-1.00;0.01;112;-145;-8698
15081;0.01;0.05;-1.00;0.01;113;-146;-8691
15103;0.01;0.05;-1.00;0.01;114;-140;-8685
15120;0.01;0.05;-1.00;0.01;114;-137;-8681
15138;0.01;0.05;-1.00;0.01;113;-138;-8678
15156;0.01;0.05;-1.00;0.01;-8676;-19862;-7001
15177;0.01;0.05;-1.00;0.01;109;-143;-8692
15195;0.01;0.05;-1.00;0.01;113;-142;-8692
15212;0.01;0.05;-1.00;0.01;113;-139;-8689
15231;0.01;0.05;-1.00;0.01;117;-135;-8690
15248;0.01;0.05;-1.00;0.01;114;-131;-8695
15265;0.01;0.05;-1.00;0.01;105;-129;-8696
15284;0.01;0.05;-1.00;0.01;105;-135;-8688
15301;0.01;0.05;-1.00;0.01;110;-136;-8685
15322;0.01;0.05;-1.00;0.01;107;-136;-8692
15341;0.01;0.05;-1.00;0.01;103;-135;-8688
15359;0.01;0.05;-1.00;0.01;102;-138;-8688
15375;0.01;0.05;-1.00;0.01;106;-139;-8688
15392;0.01;0.05;-1.00;0.01;110;-145;-8688
15412;0.01;0.05;-1.00;0.01;104;-146;-8686
15429;0.01;0.05;-1.00;0.01;102;-144;-8682
15446;0.01;0.05;-1.00;0.01;107;-144;-8678
15463;0.01;0.05;-1.00;0.01;114;-145;-8681
15483;0.01;0.05;-1.00;0.01;112;-146;-8676
15500;0.01;0.05;-1.00;0.01;107;-144;-8677
15516;0.01;0.05;-1.00;0.01;107;-146;-8677
15539;0.01;0.05;-1.00;0.01;108;-143;-8683
15557;0.01;0.05;-1.00;0.01;116;-140;-8691
15574;0.01;0.05;-1.00;0.01;112;-139;-8692
15590;0.01;0.05;-1.00;0.01;109;-137;-8693
15610;0.01;0.05;-1.00;0.01;105;-135;-8691
15628;0.01;0.05;-1.00;0.01;103;-135;-8693
15644;0.01;0.05;-1.00;0.01;107;-137;-8687
15661;0.01;0.05;-1.00;0.01;107;-135;-8689
15680;0.01;0.05;-1.00;0.01;107;-138;-8687
15699;0.01;0.05;-1.00;0.01;109;-141;-8694
15715;0.01;0.05;-1.00;0.01;-21885;-10590;98
15738;0.01;0.05;-1.00;0.01;100;-139;-8687
15761;0.01;0.05;-1.00;0.01;104;-137;-8691
15778;0.01;0.05;-1.00;0.01;105;-139;-8691
15795;0.01;0.05;-1.00;0.01;104;-134;-8686
15812;0.01;0.05;-1.00;0.01;101;-132;-8685
16836;0.01;0.05;-1.00;0.01;106;-140;-8699
16854;0.01;0.05;-1.00;0.01;110;-142;-8696
16870;0.01;0.05;-1.00;0.01;110;-145;-8695
16888;0.01;0.05;-1.00;0.01;109;-143;-8696
16907;0.01;0.05;-1.00;0.01;111;-143;-8693
16926;0.01;0.05;-1.00;0.01;111;-139;-8688
16944;0.01;0.05;-1.00;0.01;112;-141;-8687
16997;0.01;0.05;-1.00;0.01;114;-147;-8691
17019;0.01;0.05;-1.00;0.01;112;-146;-8694
17036;0.01;0.05;-1.00;0.01;117;-146;-8696
17052;0.01;0.05;-1.00;0.01;116;-141;-8697
17071;0.01;0.05;-1.00;0.01;111;-144;-8697
17090;0.01;0.05;-1.00;0.01;116;-143;-8690
17108;0.01;0.05;-1.00;0.01;111;-142;-8693
17124;0.01;0.05;-1.00;0.01;109;-142;-8691
17141;0.01;0.05;-1.00;0.01;111;-140;-8685
17161;0.01;0.05;-1.00;0.01;108;-139;-8686
17178;0.01;0.05;-1.00;0.01;103;-139;-8688
17195;0.01;0.05;-1.00;0.01;108;-143;-8683
17213;0.01;0.05;-1.00;0.01;108;-141;-8681
17235;0.01;0.05;-1.00;0.01;4251;27136;-28413
17257;0.01;0.05;-1.00;0.01;111;-137;-8704
17275;0.01;0.05;-1.00;0.01;107;-138;-8698
17292;0.01;0.05;-1.00;0.01;107;-138;-8697
17310;0.01;0.05;-1.00;0.01;109;-141;-8700
17328;0.01;0.05;-1.00;0.01;111;-140;-8699
17346;0.01;0.05;-1.00;0.01;109;-139;-8694
17364;0.01;0.05;-1.00;0.01;109;-138;-8693
17382;0.01;0.05;-1.00;0.01;107;-140;-8693
17399;0.01;0.05;-1.00;0.01;106;-140;-8700
17417;0.01;0.05;-1.00;0.01;101;-136;-8702
17435;0.01;0.05;-1.00;0.01;98;-136;-8702
17456;0.01;0.05;-1.00;0.01;104;-137;-8705
17475;0.01;0.05;-1.00;0.01;107;-138;-8709
17493;0.01;0.05;-1.00;0.01;104;-139;-8707
17509;0.01;0.05;-1.00;0.01;107;-142;-8694
17527;0.01;0.05;-1.00;0.01;110;-140;-8694
17546;0.01;0.05;-1.00;0.01;108;-139;-8695
17563;0.01;0.05;-1.00;0.01;108;-137;-8697
17581;0.01;0.05;-1.00;0.01;108;-141;-8694
17598;0.01;0.05;-1.00;0.01;109;-138;-8695
17618;0.01;0.05;-1.00;0.01;114;-135;-8698
17635;0.01;0.05;-1.00;0.01;115;-136;-8692
17651;0.01;0.05;-1.00;0.01;113;-133;-8693
17674;0.01;0.05;-1.00;0.01;112;-135;-8692
17692;0.01;0.05;-1.00;0.01;114;-141;-8693
17709;0.01;0.05;-1.00;0.01;113;-141;-8688
17725;0.01;0.05;-1.00;0.01;111;-139;-8689
17745;0.01;0.05;-1.00;0.01;114;-143;-8694
17764;0.01;0.05;-1.00;0.01;118;-138;-8699
17780;0.01;0.05;-1.00;0.01;115;-139;-8708
17806;0.01;0.05;-1.00;0.01;107;-145;-8693
17825;0.01;0.05;-1.00;0.01;111;-146;-8692
17844;0.01;0.05;-1.00;0.01;116;-142;-8690
17862;0.01;0.05;-1.00;0.01;111;-144;-8685
17884;0.01;0.05;-1.00;0.01;111;-143;-8684
17907;0.01;0.05;-1.00;0.01;110;-145;-8691
18146;0.01;0.05;-1.00;0.01;114;-136;-8690
18162;0.01;0.05;-1.00;0.01;120;-139;-8687
18180;0.01;0.05;-1.00;0.01;117;-137;-8683
18199;0.01;0.05;-1.00;0.01;114;-136;-8682
18217;0.01;0.05;-1.00;0.01;114;-137;-8682
18233;0.01;0.05;-1.00;0.01;115;-142;-8684
18251;0.01;0.05;-1.00;0.01;120;-142;-8684
18271;0.01;0.05;-1.00;0.01;116;-144;-8687
18288;0.01;0.05;-1.00;0.01;117;-142;-8689
18305;0.01;0.05;-1.00;0.01;114;-146;-8690
18327;0.01;0.05;-1.00;0.01;115;-149;-8691
18345;0.01;0.05;-1.00;0.01;119;-148;-8690
18362;0.01;0.05;-1.00;0.01;116;-149;-8699
18380;0.01;0.05;-1.00;0.01;109;-144;-8700
18398;0.01;0.05;-1.00;0.01;107;-140;-8703
18416;0.01;0.05;-1.00;0.01;111;-137;-8705
18434;0.01;0.05;-1.00;0.01;108;-135;-8698
18451;0.01;0.05;-1.00;0.01;106;-140;-8690
18470;0.01;0.05;-1.00;0.01;104;-144;-8688
18487;0.01;0.05;-1.00;0.01;108;-143;-8687
18504;0.01;0.05;-1.00;0.01;108;-143;-8693
18523;0.01;0.05;-1.00;0.01;107;-142;-8696
18543;0.01;0.05;-1.00;0.01;98;-141;-8703
18561;0.01;0.05;-1.00;0.01;103;-143;-8704
18580;0.01;0.05;-1.00;0.01;104;-141;-8705
18598;0.01;0.05;-1.00;0.01;107;-144;-8701
18614;0.01;0.05;-1.00;0.01;109;-142;-8698
18632;0.01;0.05;-1.00;0.01;112;-142;-8704
18652;0.01;0.05;-1.00;0.01;110;-142;-8702
18669;0.01;0.05;-1.00;0.01;113;-142;-8705
18696;0.01;0.05;-1.00;0.01;116;-141;-8700
18713;0.01;0.05;-1.00;0.01;113;-144;-8699
18733;0.01;0.05;-1.00;0.01;113;-145;-8696
18750;0.01;0.05;-1.00;0.01;109;-145;-8696
18770;0.01;0.05;-1.00;0.01;106;-142;-8695
18789;0.01;0.05;-1.00;0.01;105;-140;-8694
18808;0.01;0.05;-1.00;0.01;103;-140;-8694
18826;0.01;0.05;-1.00;0.01;106;-139;-8700
18843;0.01;0.05;-1.00;0.01;107;-136;-8697
18908;0.01;0.05;-1.00;0.01;109;-138;-8698
18925;0.01;0.05;-1.00;0.01;110;-138;-8701
18943;0.01;0.05;-1.00;0.01;108;-142;-8704
18959;0.01;0.05;-1.00;0.01;107;-141;-8707
18977;0.01;0.05;-1.00;0.01;105;-142;-8704
18996;0.01;0.05;-1.00;0.01;107;-143;-8701
19014;0.01;0.05;-1.00;0.01;108;-147;-8701
19034;0.01;0.05;-1.00;0.01;104;-148;-8699
19052;0.01;0.05;-1.00;0.01;108;-150;-8702
19072;0.01;0.05;-1.00;0.01;108;-151;-8701
19088;0.01;0.05;-1.00;0.01;109;-148;-8695
19104;0.01;0.05;-1.00;0.01;110;-146;-8691
19123;0.01;0.05;-1.00;0.01;107;-146;-8690
19140;0.01;0.05;-1.00;0.01;111;-145;-8692
19157;0.01;0.05;-1.00;0.01;111;-148;-8684
19175;0.13;-1.19;0.72;1.46;139;0;0
19196;0.01;0.05;-1.00;0.01;120;-146;-8687
19213;0.01;0.05;-1.00;0.01;117;-142;-8691
19229;0.01;0.05;-1.00;0.01;116;-141;-8698
19251;0.01;0.05;-1.00;0.01;111;-139;-8697
19269;0.01;0.05;-1.00;0.01;109;-140;-8695
19287;0.01;0.05;-1.00;0.01;110;-139;-8692
19304;0.01;0.05;-1.00;0.01;112;-138;-8693
19322;0.01;0.05;-1.00;0.01;111;-136;-8687
19340;0.01;0.05;-1.00;0.01;106;-136;-8686
19357;0.01;0.05;-1.00;0.01;106;-140;-8686
19375;0.01;0.05;-1.00;0.01;107;-141;-8689
19392;0.01;0.05;-1.00;0.01;102;-142;-8686
19411;0.01;0.05;-1.00;0.01;104;-143;-8681
19428;0.01;0.05;-1.00;0.01;105;-147;-8684
19445;0.01;0.05;-1.00;0.01;108;-146;-8687
19466;0.01;0.05;-1.00;0.01;109;-143;-8688
19484;0.01;0.05;-1.00;0.01;109;-142;-8691
19503;0.01;0.05;-1.00;0.01;105;-140;-8688
19520;0.01;0.05;-1.00;0.01;109;-141;-8691
19538;0.01;0.05;-1.00;0.01;111;-138;-8694
19555;0.01;0.05;-1.00;0.01;107;-139;-8694
19573;0.01;0.05;-1.00;0.01;102;-142;-8695
19592;0.01;0.05;-1.00;0.01;108;-144;-8697
19608;0.01;0.05;-1.00;0.01;108;-143;-8698
19626;0.01;0.05;-1.00;0.01;108;-143;-8702
19645;0.01;0.05;-1.00;0.01;106;-146;-8697
19662;0.01;0.05;-1.00;0.01;105;-144;-8698
19681;0.01;0.05;-1.00;0.01;108;-139;-8694
19700;0.01;0.05;-1.00;0.01;107;-140;-8697
19720;0.01;0.05;-1.00;0.01;109;-140;-8698
19745;0.01;0.05;-1.00;0.01;112;-136;-8691
19762;0.01;0.05;-1.00;0.01;113;-135;-8685
19780;0.01;0.05;-1.00;0.01;116;-135;-8686
19800;0.01;0.05;-1.00;0.01;113;-137;-8695
19816;0.01;0.05;-1.00;0.01;112;-141;-8696
19832;0.01;0.05;-1.00;0.01;110;-141;-8700
19852;0.01;0.05;-1.00;0.01;109;-146;-8702
19870;0.01;0.05;-1.00;0.01;113;-146;-8710
19887;0.01;0.05;-1.00;0.01;112;-145;-8709
19920;0.01;0.05;-1.00;0.01;112;-146;-8708
19940;0.01;0.05;-1.00;0.01;110;-148;-8705
19958;0.01;0.05;-1.00;0.01;112;-147;-8698
19978;0.01;0.05;-1.00;0.01;110;-146;-8701
21007;0.01;0.05;-1.00;0.01;106;-144;-8697
21026;0.01;0.05;-1.00;0.01;111;-142;-8691
21047;0.01;0.05;-1.00;0.01;108;-140;-8692
21066;0.01;0.05;-1.00;0.01;107;-145;-8689
21086;0.01;0.05;-1.00;0.01;105;-145;-8690
21106;0.01;0.05;-1.00;0.01;102;-143;-8690
21126;0.01;0.05;-1.00;0.01;100;-144;-8690
21145;0.01;0.05;-1.00;0.01;105;-143;-8689
21170;0.01;0.05;-1.00;0.01;106;-145;-8689
21188;0.01;0.05;-1.00;0.01;107;-139;-8690
21208;0.01;0.05;-1.00;0.01;108;-135;-8694
21229;0.01;0.05;-1.00;0.01;108;-135;-8698
21257;0.01;0.05;-1.00;0.01;115;-136;-8695
21275;0.01;0.05;-1.00;0.01;116;-139;-8686
21296;0.01;0.05;-1.00;0.01;109;-142;-8691
21316;0.01;0.05;-1.00;0.01;107;-140;-8691
21338;0.01;0.05;-1.00;0.01;105;-139;-8692
21357;0.01;0.05;-1.00;0.01;110;-138;-8696
21382;0.01;0.05;-1.00;0.01;110;-139;-8687
21402;0.01;0.05;-1.00;0.01;108;-138;-8687
21425;0.01;0.05;-1.00;0.01;110;-144;-8683
21443;0.01;0.05;-1.00;0.01;111;-144;-8691
21465;0.01;0.05;-1.00;0.01;112;-145;-8696
21485;0.01;0.05;-1.00;0.01;110;-143;-8697
21505;0.01;0.05;-1.00;0.01;113;-142;-8694
21523;0.01;0.05;-1.00;0.01;114;-139;-8688
21545;0.01;0.05;-1.00;0.01;114;-138;-8689
21565;0.01;0.05;-1.00;0.01;107;-140;-8686
21586;0.01;0.05;-1.00;0.01;109;-139;-8685
21605;0.01;0.05;-1.00;0.01;107;-139;-8683
21675;0.01;0.05;-1.00;0.01;27284;7719;-15369
21697;0.01;0.05;-1.00;0.01;116;-141;-8696
21718;0.01;0.05;-1.00;0.01;113;-140;-8694
21738;0.01;0.05;-1.00;0.01;109;-140;-8691
21760;0.01;0.05;-1.00;0.01;107;-139;-8691
21779;0.01;0.05;-1.00;0.01;104;-139;-8694
21798;0.01;0.05;-1.00;0.01;106;-138;-8694
21818;0.01;0.05;-1.00;0.01;107;-135;-8694
21840;0.01;0.05;-1.00;0.01;110;-136;-8697
21859;0.01;0.05;-1.00;0.01;111;-138;-8694
21877;0.01;0.05;-1.00;0.01;110;-135;-8698
21898;0.01;0.05;-1.00;0.01;108;-134;-8700
21918;0.01;0.05;-1.00;0.01;107;-133;-8693
21941;0.01;0.05;-1.00;0.01;109;-133;-8693
21961;0.01;0.05;-1.00;0.01;104;-135;-8702
21982;0.01;0.05;-1.00;0.01;99;-136;-8698
22001;0.01;0.05;-1.00;0.01;105;-137;-8698
22022;0.01;0.05;-1.00;0.01;107;-140;-8695
22041;0.01;0.05;-1.00;0.01;105;-139;-8694
22062;0.01;0.05;-1.00;0.01;108;-142;-8699
22081;0.01;0.05;-1.00;0.01;110;-142;-8700
22102;0.01;0.05;-1.00;0.01;107;-140;-8698
22121;0.01;0.05;-1.00;0.01;110;-136;-8700
22142;0.01;0.05;-1.00;0.01;108;-137;-8698
22161;0.01;0.05;-1.00;0.01;111;-137;-8695
22197;0.01;0.05;-1.00;0.01;104;-143;-8692
22216;0.01;0.05;-1.00;0.01;102;-143;-8693
22236;0.01;0.05;-1.00;0.01;103;-142;-8694
22255;0.01;0.05;-1.00;0.01;105;-143;-8690
22277;0.01;0.05;-1.00;0.01;105;-141;-8690
22297;0.01;0.05;-1.00;0.01;108;-141;-8686
22316;0.01;0.05;-1.00;0.01;112;-143;-8691
22336;0.01;0.05;-1.00;0.01;106;-144;-8699
22357;0.01;0.05;-1.00;0.01;109;-142;-8697
22377;0.01;0.05;-1.00;0.01;108;-142;-8695
22396;0.01;0.05;-1.00;0.01;110;-139;-8693
22416;0.01;0.05;-1.00;0.01;106;-137;-8689
22442;0.01;0.05;-1.00;0.01;102;-140;-8686
22460;0.01;0.05;-1.00;0.01;104;-138;-8684
22478;0.01;0.05;-1.00;0.01;105;-141;-8686
22500;0.01;0.05;-1.00;0.01;107;-139;-8692
22522;0.01;0.05;-1.00;0.01;110;-140;-8691
22540;0.01;0.05;-1.00;0.01;117;-141;-8698
22558;0.01;0.05;-1.00;0.01;116;-142;-8693
22580;0.01;0.05;-1.00;0.01;111;-142;-8700
22601;0.01;0.05;-1.00;0.01;109;-140;-8698
22620;0.01;0.05;-1.00;0.01;104;-142;-8694
22639;0.01;0.05;-1.00;0.01;104;-141;-8691
22661;0.01;0.05;-1.00;0.01;107;-139;-8691
22686;0.01;0.05;-1.00;0.01;105;-140;-8692
22705;0.01;0.05;-1.00;0.01;106;-144;-8689
22725;0.01;0.05;-1.00;0.01;105;-146;-8688
22747;0.01;0.05;-1.00;0.01;109;-146;-8696
22766;0.01;0.05;-1.00;0.01;110;-141;-8694
22785;0.01;0.05;-1.00;0.01;113;-139;-8697
22805;0.01;0.05;-1.00;0.01;117;-139;-8700
22827;0.01;0.05;-1.00;0.01;117;-133;-8704
22846;0.01;0.05;-1.00;0.01;111;-134;-8702
22865;0.01;0.05;-1.00;0.01;109;-137;-8693
22885;0.01;0.05;-1.00;0.01;106;-138;-8692
22907;0.01;0.05;-1.00;0.01;103;-142;-8694
22929;0.01;0.05;-1.00;0.01;110;-143;-8694
22950;0.01;0.05;-1.00;0.01;113;-140;-8698
22969;0.01;0.05;-1.00;0.01;112;-138;-8697
22989;0.01;0.05;-1.00;0.01;112;-140;-8702
23009;0.01;0.05;-1.00;0.01;112;-141;-8703
23029;0.01;0.05;-1.00;0.01;108;-142;-8701
23049;0.01;0.05;-1.00;0.01;111;-147;-8697
23069;0.01;0.05;-1.00;0.01;106;-148;-8698
23090;0.01;0.05;-1.00;0.01;105;-148;-8692
23109;0.01;0.05;-1.00;0.01;106;-147;-8693
23130;0.01;0.05;-1.00;0.01;105;-147;-8697
23149;0.01;0.05;-1.00;0.01;109;-145;-8697
23176;0.01;0.05;-1.00;0.01;98;-135;-8690
23196;0.01;0.05;-1.00;0.01;99;-133;-8693
23215;0.01;0.05;-1.00;0.01;105;-133;-8691
23235;0.01;0.05;-1.00;0.01;108;-136;-8696
23257;0.01;0.05;-1.00;0.01;98;-137;-8688
23276;0.01;0.05;-1.00;0.01;97;-137;-8686
23295;0.01;0.05;-1.00;0.01;103;-138;-8687
23315;0.01;0.05;-1.00;0.01;108;-140;-8677
23337;0.01;0.05;-1.00;0.01;104;-140;-8679
23356;0.01;0.05;-1.00;0.01;101;-138;-8681
23374;0.01;0.05;-1.00;0.01;103;-139;-8679
23395;0.01;0.05;-1.00;0.01;104;-139;-8686
23421;0.01;0.05;-1.00;0.01;109;-139;-8687
23440;0.01;0.05;-1.00;0.01;109;-141;-8693
23461;0.01;0.05;-1.00;0.01;109;-141;-8693
23519;0.01;0.05;-1.00;0.01;110;-141;-8693
23539;0.01;0.05;-1.00;0.01;112;-142;-8698
23558;0.01;0.05;-1.00;0.01;112;-142;-8704
23576;0.01;0.05;-1.00;0.01;110;-143;-8703
23598;0.01;0.05;-1.00;0.01;112;-142;-8699
23626;0.01;0.05;-1.00;0.01;109;-138;-8685
23645;0.01;0.05;-1.00;0.01;110;-139;-8685
23663;0.01;0.05;-1.00;0.01;114;-137;-8690
23685;0.01;0.05;-1.00;0.01;118;-141;-8683
23709;0.01;0.05;-1.00;0.01;120;-142;-8685
23728;0.01;0.05;-1.00;0.01;115;-142;-8688
23748;0.01;0.05;-1.00;0.01;112;-141;-8694
23769;0.01;0.05;-1.00;0.01;110;-142;-8698
23789;0.01;0.05;-1.00;0.01;110;-146;-8698
23808;0.01;0.05;-1.00;0.01;109;-146;-8701
23828;0.01;0.05;-1.00;0.01;111;-144;-8702
23849;0.01;0.05;-1.00;0.01;105;-142;-8702
23869;0.01;0.05;-1.00;0.01;106;-142;-8701
23889;0.01;0.05;-1.00;0.01;107;-141;-8697
23910;0.01;0.05;-1.00;0.01;111;-140;-8693
23936;0.01;0.05;-1.00;0.01;113;-138;-8694
23957;0.01;0.05;-1.00;0.01;111;-135;-8694
23977;0.01;0.05;-1.00;0.01;113;-133;-8691
23997;0.01;0.05;-1.00;0.01;116;-132;-8692
24017;0.01;0.05;-1.00;0.01;118;-135;-8690
24037;0.01;0.05;-1.00;0.01;116;-139;-8694
24056;0.01;0.05;-1.00;0.01;117;-137;-8695
24075;0.01;0.05;-1.00;0.01;116;-137;-8692
24095;0.12;-0.40;1.43;0.11;136;-1;0
24126;0.01;0.05;-1.00;0.01;98;-142;-8698
24146;0.01;0.05;-1.00;0.01;100;-143;-8702
24164;0.01;0.05;-1.00;0.01;104;-145;-8701
24184;0.01;0.05;-1.00;0.01;109;-143;-8703
24209;0.01;0.05;-1.00;0.01;114;-141;-8700
24229;0.01;0.05;-1.00;0.01;111;-142;-8700
24247;0.01;0.05;-1.00;0.01;108;-142;-8696
24268;0.01;0.05;-1.00;0.01;106;-144;-8701
25296;0.01;0.05;-1.00;0.01;112;-145;-8696
25314;0.01;0.05;-1.00;0.01;116;-146;-8703
25332;0.01;0.05;-1.00;0.01;112;-145;-8704
25354;0.01;0.05;-1.00;0.01;113;-146;-8701
25374;0.01;0.05;-1.00;0.01;113;-145;-8695
25394;0.01;0.05;-1.00;0.01;108;-145;-8695
25412;0.01;0.05;-1.00;0.01;101;-140;-8696
25434;0.01;0.05;-1.00;0.01;102;-136;-8698
25457;0.01;0.05;-1.00;0.01;105;-137;-8700
25476;0.01;0.05;-1.00;0.01;107;-135;-8697
25496;0.01;0.05;-1.00;0.01;111;-137;-8696
25517;0.01;0.05;-1.00;0.01;113;-139;-8696
25537;0.01;0.05;-1.00;0.01;118;-143;-8700
25556;0.01;0.05;-1.00;0.01;117;-143;-8695
25576;0.01;0.05;-1.00;0.01;112;-139;-8695
25597;0.01;0.05;-1.00;0.01;109;-145;-8690
25625;0.01;0.05;-1.00;0.01;110;-137;-8703
25644;0.01;0.05;-1.00;0.01;111;-137;-8702
25664;0.01;0.05;-1.00;0.01;111;-141;-8705
25685;0.01;0.05;-1.00;0.01;109;-142;-8700
25707;0.01;0.05;-1.00;0.01;113;-144;-8698
25728;0.01;0.05;-1.00;0.01;113;-147;-8695
25747;0.01;0.05;-1.00;0.01;113;-143;-8695
25768;0.01;0.05;-1.00;0.01;112;-146;-8695
25787;0.01;0.05;-1.00;0.01;114;-148;-8689
25808;0.01;0.05;-1.00;0.01;109;-148;-8691
25827;0.01;0.05;-1.00;0.01;107;-147;-8698
25847;0.01;0.05;-1.00;0.01;109;-143;-8700
25867;0.01;0.05;-1.00;0.01;109;-142;-8701
25887;0.01;0.05;-1.00;0.01;107;-143;-8695
25907;0.01;0.05;-1.00;0.01;105;-139;-8688
25926;0.01;0.05;-1.00;0.01;106;-141;-8687
25951;0.01;0.05;-1.00;0.01;111;-139;-8686
25970;0.01;0.05;-1.00;0.01;108;-142;-8686
25989;0.01;0.05;-1.00;0.01;100;-144;-8688
26009;0.01;0.05;-1.00;0.01;104;-140;-8694
26031;0.01;0.05;-1.00;0.01;104;-143;-8691
26050;0.01;0.05;-1.00;0.01;101;-145;-8689
26069;0.01;0.05;-1.00;0.01;105;-140;-8692
26089;0.01;0.05;-1.00;0.01;106;-144;-8685
26115;0.01;0.05;-1.00;0.01;113;-135;-8692
26134;0.01;0.05;-1.00;0.01;112;-138;-8692
26154;0.01;0.05;-1.00;0.01;115;-139;-8697
26173;0.01;0.05;-1.00;0.01;116;-141;-8695
26193;0.01;0.05;-1.00;0.01;117;-141;-8697
26212;0.01;0.05;-1.00;0.01;118;-137;-8697
26230;0.01;0.05;-1.00;0.01;116;-137;-8693
26251;0.01;0.05;-1.00;0.01;112;-138;-8698
26271;0.01;0.05;-1.00;0.01;115;-143;-8695
26292;0.01;0.05;-1.00;0.01;117;-141;-8697
26311;0.01;0.05;-1.00;0.01;118;-144;-8698
26333;0.01;0.05;-1.00;0.01;118;-143;-8695
26405;0.01;0.05;-1.00;0.01;116;-144;-8698
26423;0.01;0.05;-1.00;0.01;116;-141;-8704
26441;0.01;0.05;-1.00;0.01;112;-143;-8705
26466;0.01;0.05;-1.00;0.01;113;-141;-8698
26486;0.01;0.05;-1.00;0.01;112;-141;-8696
26506;0.01;0.05;-1.00;0.01;116;-140;-8697
26524;0.01;0.05;-1.00;0.01;112;-140;-8698
26555;0.01;0.05;-1.00;0.01;114;-137;-8686
26576;0.01;0.05;-1.00;0.01;111;-137;-8685
26594;0.01;0.05;-1.00;0.01;110;-139;-8679
26613;0.01;0.05;-1.00;0.01;110;-139;-8682
26635;0.01;0.05;-1.00;0.01;107;-140;-8684
26655;0.01;0.05;-1.00;0.01;111;-136;-8685
26674;0.01;0.05;-1.00;0.01;107;-138;-8691
26692;0.01;0.05;-1.00;0.01;114;-138;-8694
26718;0.01;0.05;-1.00;0.01;118;-141;-8689
26738;0.01;0.05;-1.00;0.01;114;-139;-8688
26757;0.01;0.05;-1.00;0.01;110;-140;-8684
26776;0.01;0.05;-1.00;0.01;109;-138;-8688
26798;0.01;0.05;-1.00;0.01;109;-137;-8689
26817;0.01;0.05;-1.00;0.01;111;-133;-8686
26836;0.01;0.05;-1.00;0.01;114;-136;-8685
26856;0.01;0.05;-1.00;0.01;115;-136;-8689
26878;0.01;0.05;-1.00;0.01;115;-135;-8698
26897;0.01;0.05;-1.00;0.01;120;-136;-8700
26915;0.01;0.05;-1.00;0.01;118;-133;-8697
26936;0.01;0.05;-1.00;0.01;113;-135;-8703
26960;0.01;0.05;-1.00;0.01;110;-135;-8708
26979;0.01;0.05;-1.00;0.01;106;-135;-8706
26999;0.01;0.05;-1.00;0.01;105;-134;-8705
27019;0.01;0.05;-1.00;0.01;106;-134;-8701
27045;0.01;0.05;-1.00;0.01;111;-142;-8684
27064;0.01;0.05;-1.00;0.01;108;-141;-8677
27084;0.01;0.05;-1.00;0.01;110;-141;-8684
27104;0.01;0.05;-1.00;0.01;113;-140;-8685
27124;0.01;0.05;-1.00;0.01;115;-139;-8691
27144;0.01;0.05;-1.00;0.01;114;-137;-8699
27164;0.01;0.05;-1.00;0.01;110;-139;-8699
27184;0.01;0.05;-1.00;0.01;111;-137;-8699
27207;0.01;0.05;-1.00;0.01;111;-140;-8696
27228;0.01;0.05;-1.00;0.01;115;-142;-8692
27248;0.01;0.05;-1.00;0.01;112;-143;-8688
27267;0.01;0.05;-1.00;0.01;107;-143;-8689
27287;0.01;0.05;-1.00;0.01;104;-145;-8697
27309;0.01;0.05;-1.00;0.01;106;-146;-8706
27328;0.01;0.05;-1.00;0.01;108;-147;-8704
27347;0.01;0.05;-1.00;0.01;105;-147;-8700
27367;0.01;0.05;-1.00;0.01;107;-146;-8693
27389;0.01;0.05;-1.00;0.01;112;-145;-8689
27409;0.01;0.05;-1.00;0.01;114;-144;-8690
27430;0.01;0.05;-1.00;0.01;115;-144;-8693
27458;0.01;0.05;-1.00;0.01;112;-140;-8683
27478;0.01;0.05;-1.00;0.01;110;-138;-8686
27496;0.01;0.05;-1.00;0.01;110;-138;-8687
27525;0.01;0.05;-1.00;0.01;114;-138;-8697
27546;0.01;0.05;-1.00;0.01;109;-138;-8699
27567;0.01;0.05;-1.00;0.01;106;-140;-8699
27585;0.01;0.05;-1.00;0.01;110;-143;-8697
27605;0.01;0.05;-1.00;0.01;111;-146;-8697
27626;0.01;0.05;-1.00;0.01;114;-146;-8707
27647;0.01;0.05;-1.00;0.01;115;-145;-8712
27666;0.01;0.05;-1.00;0.01;111;-143;-8707
27685;0.01;0.05;-1.00;0.01;114;-143;-8707
27710;0.01;0.05;-1.00;0.01;113;-142;-8703
27730;0.01;0.05;-1.00;0.01;113;-142;-8705
27748;0.01;0.05;-1.00;0.01;111;-144;-8701
27768;0.01;0.05;-1.00;0.01;106;-146;-8699
27790;0.01;0.05;-1.00;0.01;105;-143;-8696
27809;0.01;0.05;-1.00;0.01;101;-141;-8699
27828;0.01;0.05;-1.00;0.01;102;-144;-8692
27848;0.01;0.05;-1.00;0.01;102;-143;-8694
27870;0.01;0.05;-1.00;0.01;101;-140;-8697
27889;0.01;0.05;-1.00;0.01;105;-139;-8696
27908;0.01;0.05;-1.00;0.01;104;-140;-8696
27928;0.01;0.05;-1.00;0.01;105;-140;-8691
27953;0.01;0.05;-1.00;0.01;107;-138;-8690
27972;0.01;0.05;-1.00;0.01;109;-139;-8689
27993;0.01;0.05;-1.00;0.01;-13398;14247;97
28014;0.01;0.05;-1.00;0.01;105;-143;-8698
28034;0.01;0.05;-1.00;0.01;104;-142;-8696
28054;0.01;0.05;-1.00;0.01;105;-136;-8695
28074;0.01;0.05;-1.00;0.01;103;-139;-8695
28094;0.01;0.05;-1.00;0.01;104;-141;-8703
28114;0.01;0.05;-1.00;0.01;106;-142;-8704
28134;0.01;0.05;-1.00;0.01;105;-139;-8709
28154;0.01;0.05;-1.00;0.01;108;-137;-8712
28174;0.01;0.05;-1.00;0.01;107;-137;-8710
28200;0.01;0.05;-1.00;0.01;108;-139;-8703
28270;0.01;0.05;-1.00;0.01;114;-137;-8697
28290;0.01;0.05;-1.00;0.01;110;-135;-8695
28308;0.01;0.05;-1.00;0.01;105;-135;-8694
28329;0.01;0.05;-1.00;0.01;105;-137;-8697
28349;0.01;0.05;-1.00;0.01;104;-132;-8696
28370;0.01;0.05;-1.00;0.01;105;-133;-8691
28388;0.01;0.05;-1.00;0.01;106;-140;-8692
28407;0.01;0.05;-1.00;0.01;106;-141;-8695
28429;0.01;0.05;-1.00;0.01;107;-146;-8703
28454;0.01;0.05;-1.00;0.01;117;-145;-8693
28473;0.01;0.05;-1.00;0.01;119;-143;-8696
28497;0.01;0.05;-1.00;0.01;113;-142;-8697
28518;0.01;0.05;-1.00;0.01;114;-144;-8698
28536;0.01;0.05;-1.00;0.01;114;-145;-8695
28555;0.01;0.05;-1.00;0.01;113;-145;-8694
29584;0.01;0.05;-1.00;0.01;111;-147;-8697
29605;0.01;0.05;-1.00;0.01;112;-146;-8698
29623;0.01;0.05;-1.00;0.01;108;-144;-8699
29642;0.01;0.05;-1.00;0.01;106;-147;-8692
29664;0.01;0.05;-1.00;0.01;108;-145;-8693
29684;0.01;0.05;-1.00;0.01;108;-144;-8696
29704;0.01;0.05;-1.00;0.01;110;-144;-8699
29722;0.01;0.05;-1.00;0.01;109;-145;-8701
29748;0.01;0.05;-1.00;0.01;107;-146;-8702
29767;0.01;0.05;-1.00;0.01;106;-141;-8704
29786;0.01;0.05;-1.00;0.01;113;-139;-8704
29806;0.01;0.05;-1.00;0.01;113;-136;-8694
29827;0.01;0.05;-1.00;0.01;113;-136;-8693
29847;0.01;0.05;-1.00;0.01;114;-136;-8690
29866;0.01;0.05;-1.00;0.01;115;-137;-8690
29886;0.01;0.05;-1.00;0.01;116;-137;-8692
29907;0.01;0.05;-1.00;0.01;115;-132;-8697
29927;0.01;0.05;-1.00;0.01;111;-133;-8701
29954;0.01;0.05;-1.00;0.01;109;-142;-8684
29977;0.01;0.05;-1.00;0.01;109;-140;-8686
29998;0.01;0.05;-1.00;0.01;110;-142;-8696
30017;0.01;0.05;-1.00;0.01;112;-142;-8697
30037;0.01;0.05;-1.00;0.01;114;-138;-8695
30057;0.01;0.05;-1.00;0.01;116;-138;-8695
30077;0.01;0.05;-1.00;0.01;119;-137;-8693
30096;0.01;0.05;-1.00;0.01;115;-138;-8694
30117;0.01;0.05;-1.00;0.01;113;-137;-8698
30136;0.01;0.05;-1.00;0.01;112;-137;-8695
30156;0.01;0.05;-1.00;0.01;115;-135;-8691
30176;0.01;0.05;-1.00;0.01;113;-135;-8697
30196;0.01;0.05;-1.00;0.01;114;-139;-8700
30218;0.01;0.05;-1.00;0.01;116;-138;-8690
30238;0.01;0.05;-1.00;0.01;118;-139;-8693
30260;0.01;0.05;-1.00;0.01;119;-142;-8694
30279;0.01;0.05;-1.00;0.01;122;-142;-8689
30298;0.01;0.05;-1.00;0.01;120;-143;-8690
30318;0.01;0.05;-1.00;0.01;118;-141;-8694
30339;0.01;0.05;-1.00;0.01;116;-142;-8692
30359;0.01;0.05;-1.00;0.01;115;-148;-8690
30378;0.01;0.05;-1.00;0.01;115;-148;-8690
30397;0.01;0.05;-1.00;0.01;113;-145;-8691
30419;0.01;0.05;-1.00;0.01;113;-148;-8695
30443;0.01;0.05;-1.00;0.01;109;-138;-8697
30465;0.01;0.05;-1.00;0.01;110;-138;-8698
30486;0.01;0.05;-1.00;0.01;112;-140;-8701
30507;0.01;0.05;-1.00;0.01;110;-141;-8702
30526;0.01;0.05;-1.00;0.01;114;-139;-8701
30545;0.01;0.05;-1.00;0.01;113;-140;-8702
30566;0.01;0.05;-1.00;0.01;116;-137;-8688
30587;0.01;0.05;-1.00;0.01;113;-141;-8685
30605;0.01;0.05;-1.00;0.01;112;-141;-8687
30624;0.01;0.05;-1.00;0.01;112;-143;-8691
30645;0.01;0.05;-1.00;0.01;107;-141;-8695
30666;0.01;0.05;-1.00;0.01;107;-141;-8688
30685;0.01;0.05;-1.00;0.01;107;-142;-8684
30707;0.01;0.05;-1.00;0.01;108;-142;-8693
30729;0.01;0.05;-1.00;0.01;109;-141;-8697
30748;0.01;0.05;-1.00;0.01;110;-142;-8699
30768;0.01;0.05;-1.00;0.01;103;-140;-8692
30787;0.01;0.05;-1.00;0.01;109;-142;-8688
30809;0.01;0.05;-1.00;0.01;112;-140;-8685
30828;0.01;0.05;-1.00;0.01;114;-137;-8688
30847;0.01;0.05;-1.00;0.01;115;-139;-8694
30867;0.01;0.05;-1.00;0.01;116;-140;-8697
30889;0.01;0.05;-1.00;0.01;114;-142;-8695
30908;0.01;0.05;-1.00;0.01;110;-143;-8702
30933;0.01;0.05;-1.00;0.01;111;-143;-8691
30957;0.01;0.05;-1.00;0.01;110;-142;-8683
30984;0.01;0.05;-1.00;0.01;113;-143;-8688
31002;0.01;0.05;-1.00;0.01;114;-144;-8683
31023;0.01;0.05;-1.00;0.01;112;-143;-8682
31042;0.01;0.05;-1.00;0.01;109;-144;-8683
31064;0.01;0.05;-1.00;0.01;111;-145;-8685
31084;0.01;0.05;-1.00;0.01;111;-146;-8683
31145;0.01;0.05;-1.00;0.01;109;-138;-8685
31163;0.01;0.05;-1.00;0.01;105;-137;-8687
31184;0.01;0.05;-1.00;0.01;105;-132;-8686
31204;0.01;0.05;-1.00;0.01;106;-133;-8686
31224;0.01;0.05;-1.00;0.01;105;-134;-8688
31246;0.01;0.05;-1.00;0.01;104;-133;-8691
31267;0.01;0.05;-1.00;0.01;105;-135;-8698
31288;0.01;0.05;-1.00;0.01;107;-136;-8702
31306;0.01;0.05;-1.00;0.01;108;-139;-8705
31326;0.01;0.05;-1.00;0.01;111;-137;-8706
31346;0.01;0.05;-1.00;0.01;112;-138;-8704
31373;0.01;0.05;-1.00;0.01;105;-145;-8693
31391;0.01;0.05;-1.00;0.01;104;-146;-8689
31410;0.01;0.05;-1.00;0.01;103;-146;-8684
31431;0.01;0.05;-1.00;0.01;102;-142;-8681
31452;0.01;0.05;-1.00;0.01;103;-145;-8686
31470;0.01;0.05;-1.00;0.01;108;-145;-8690
31494;0.01;0.05;-1.00;0.01;111;-143;-8695
31514;0.01;0.05;-1.00;0.01;113;-142;-8697
31535;0.01;0.05;-1.00;0.01;116;-140;-8691
31553;0.01;0.05;-1.00;0.01;119;-140;-8691
31573;0.01;0.05;-1.00;0.01;125;-143;-8693
31594;0.01;0.05;-1.00;0.01;123;-142;-8687
31614;0.01;0.05;-1.00;0.01;120;-140;-8685
31633;0.01;0.05;-1.00;0.01;115;-139;-8693
31653;0.01;0.05;-1.00;0.01;113;-141;-8692
31674;0.01;0.05;-1.00;0.01;113;-139;-8691
31693;0.01;0.05;-1.00;0.01;115;-142;-8687
31712;0.01;0.05;-1.00;0.01;115;-143;-8684
31736;0.01;0.05;-1.00;0.01;115;-145;-8686
31756;0.01;0.05;-1.00;0.01;109;-144;-8689
31775;0.01;0.05;-1.00;0.01;106;-142;-8691
31796;0.01;0.05;-1.00;0.01;103;-143;-8691
31815;0.01;0.05;-1.00;0.01;104;-143;-8689
31836;0.01;0.05;-1.00;0.01;101;-146;-8687
31862;0.01;0.05;-1.00;0.01;114;-138;-8691
31883;0.01;0.05;-1.00;0.01;110;-138;-8690
31902;0.01;0.05;-1.00;0.01;108;-137;-8690
31922;0.01;0.05;-1.00;0.01;114;-135;-8689
31942;0.01;0.05;-1.00;0.01;114;-137;-8695
31962;0.01;0.05;-1.00;0.01;114;-138;-8698
31984;0.01;0.05;-1.00;0.01;109;-138;-8698
32005;0.01;0.05;-1.00;0.01;112;-137;-8696
32026;0.01;0.05;-1.00;0.01;109;-136;-8696
32046;0.01;0.05;-1.00;0.01;113;-141;-8700
32064;0.01;0.05;-1.00;0.01;114;-139;-8702
32085;0.01;0.05;-1.00;0.01;118;-138;-8706
32105;0.01;0.05;-1.00;0.01;120;-139;-8706
32126;0.01;0.05;-1.00;0.01;112;-139;-8699
32144;0.01;0.05;-1.00;0.01;112;-142;-8701
32165;0.01;0.05;-1.00;0.01;114;-143;-8702
32185;0.01;0.05;-1.00;0.01;114;-140;-8698
32205;0.01;0.05;-1.00;0.01;114;-137;-8697
32227;0.01;0.05;-1.00;0.01;114;-135;-8701
32248;0.01;0.05;-1.00;0.01;110;-138;-8707
32269;0.01;0.05;-1.00;0.01;110;-136;-8705
32288;0.01;0.05;-1.00;0.01;114;-134;-8701
32307;0.01;0.05;-1.00;0.01;112;-132;-8698
32328;0.01;0.05;-1.00;0.01;103;-129;-8697
32353;0.00;0.06;-1.00;-0.00;18;-4;-8722
32371;-0.00;0.06;-1.00;-0.00;10;4;-8719
32390;-0.00;0.06;-1.00;-0.00;-17;-5;-8703
32411;-0.00;0.06;-1.00;0.00;-50;-20;-8692
32433;-0.00;0.06;-1.00;0.00;-89;-33;-8679
32451;-0.00;0.06;-1.00;0.00;-73;-37;-8689
32474;-0.00;0.06;-1.00;0.00;-23;-18;-8716
32495;-0.00;0.06;-1.00;0.00;27;1;-8732
32515;-0.00;0.06;-1.00;0.00;32;-4;-8744
32533;-0.00;0.06;-1.00;0.00;3;-14;-8735
32554;-0.00;0.06;-1.00;0.00;-49;-32;-8711
32575;-0.00;0.06;-1.00;0.00;-78;-58;-8701
32595;-0.00;0.06;-1.00;0.00;-50;-88;-8715
32613;-0.00;0.06;-1.00;0.00;-21;-95;-8708
32634;-0.00;0.06;-1.00;0.00;-32;-74;-8698
32655;-0.00;0.06;-1.00;0.00;-57;-39;-8679
32674;-0.00;0.06;-1.00;0.00;-94;-11;-8659
32693;-0.00;0.06;-1.00;0.00;-126;2;-8640
32717;-0.00;0.06;-1.00;0.00;-145;32;-8641
32737;-0.00;0.06;-1.00;0.00;-138;40;-8707
32757;-0.00;0.06;-1.00;0.00;-81;29;-8799
32777;-0.00;0.06;-1.00;0.00;-31;53;-8837
33802;-0.01;0.06;-1.00;-0.01;-106;129;-8688
33822;-0.01;0.06;-1.00;-0.01;-111;199;-8743
33852;-0.01;0.06;-1.00;-0.01;-111;115;-8647
33873;-0.01;0.06;-1.00;-0.01;-134;127;-8626
33892;-0.01;0.06;-1.00;-0.01;-144;155;-8652
33914;-0.01;0.06;-1.00;-0.01;-133;202;-8709
33935;-0.01;0.06;-1.00;-0.01;-105;210;-8778
33997;-0.01;0.06;-1.00;-0.01;-71;186;-8836
34017;-0.01;0.06;-1.00;-0.01;-63;162;-8844
34038;-0.01;0.06;-1.00;-0.01;-69;150;-8813
34059;-0.01;0.06;-1.00;-0.01;-75;155;-8781
34078;-0.01;0.06;-1.00;-0.01;-101;171;-8751
34097;-0.01;0.06;-1.00;-0.01;-119;169;-8739
34118;-0.01;0.06;-1.00;-0.01;-104;162;-8735
34139;-0.01;0.06;-1.00;-0.01;-108;153;-8720
34158;-0.01;0.06;-1.00;-0.01;-132;160;-8687
34177;-0.01;0.06;-1.00;-0.01;-147;158;-8634
34198;-0.01;0.06;-1.00;-0.01;-151;139;-8582
34220;-0.01;0.06;-1.00;-0.01;-142;118;-8556
34241;-0.01;0.06;-1.00;-0.01;-118;92;-8547
34262;-0.01;0.06;-1.00;-0.01;-118;97;-8539
34291;-0.01;0.06;-1.00;-0.01;-117;28;-8723
34311;-0.01;0.06;-1.00;-0.01;-121;31;-8742
34329;-0.01;0.06;-1.00;-0.01;-131;66;-8758
34350;-0.01;0.06;-1.00;-0.01;-140;120;-8783
34371;-0.01;0.06;-1.00;-0.01;-151;173;-8810
34391;-0.01;0.06;-1.00;-0.01;-154;187;-8821
34410;-0.01;0.06;-1.00;-0.01;-140;169;-8828
34430;-0.01;0.06;-1.00;-0.01;-143;147;-8800
34451;-0.01;0.06;-1.00;-0.01;-154;134;-8753
34474;-0.01;0.06;-1.00;-0.01;-163;139;-8712
34496;-0.01;0.06;-1.00;-0.01;-182;155;-8689
34517;-0.01;0.06;-1.00;-0.01;-198;174;-8677
34546;-0.01;0.06;-1.00;-0.01;-209;198;-8693
34565;-0.01;0.06;-1.00;-0.01;-210;212;-8709
34585;-0.01;0.06;-1.00;-0.01;-217;220;-8707
34605;-0.01;0.06;-1.00;-0.01;-213;222;-8702
34625;-0.01;0.06;-1.00;-0.01;-215;198;-8684
34646;-0.01;0.06;-1.00;-0.01;-209;149;-8652
34665;-0.01;0.06;-1.00;-0.01;-206;110;-8655
34686;-0.01;0.06;-1.00;-0.01;-185;100;-8683
34706;-0.01;0.06;-1.00;-0.01;-182;149;-8704
34730;-0.01;0.06;-1.00;-0.01;-202;215;-8730
34750;-0.01;0.06;-0.01;0.68;-3581;3264;-14081
34772;-0.01;0.06;-1.00;-0.01;-203;92;-8609
34791;-0.01;0.06;-1.00;-0.01;-187;97;-8644
34813;-0.01;0.06;-1.00;-0.01;-187;133;-8682
34833;-0.01;0.06;-1.00;-0.01;-208;174;-8702
34851;-0.01;0.06;-1.00;-0.01;-222;205;-8721
34871;-0.01;0.06;-1.00;-0.01;-219;215;-8743
34892;-0.01;0.06;-1.00;-0.01;-200;207;-8752
34913;-0.01;0.06;-1.00;-0.01;-175;176;-8762
34931;-0.01;0.06;-1.00;-0.01;-164;153;-8758
34956;-0.01;0.06;-1.00;-0.01;-175;161;-8733
34976;-0.01;0.06;-1.00;-0.01;-207;191;-8724
34996;-0.01;0.06;-1.00;-0.01;-232;217;-8713
35014;-0.01;0.06;-1.00;-0.01;-249;230;-8700
35036;-0.01;0.06;-1.00;-0.01;-248;228;-8711
35055;-0.01;0.06;-1.00;-0.01;-230;212;-8719
35074;-0.01;0.06;-1.00;-0.01;-208;192;-8733
35094;-0.01;0.06;-1.00;-0.01;-211;190;-8730
35116;-0.01;0.06;-1.00;-0.01;-223;181;-8719
35135;-0.01;0.06;-1.00;-0.01;-216;168;-8704
35154;-0.01;0.06;-1.00;-0.01;-204;151;-8698
35178;-0.01;0.06;-1.00;-0.01;-189;144;-8685
35199;-0.01;0.06;-1.00;-0.01;-186;132;-8667
35218;-0.01;0.06;-1.00;-0.01;-191;109;-8653
35239;-0.01;0.06;-1.00;-0.01;-186;107;-8661
35261;-0.01;0.05;-1.00;-0.01;-211;221;-8698
35282;-0.01;0.05;-1.00;-0.01;-192;186;-8711
35301;-0.01;0.05;-1.00;-0.01;-170;141;-8717
35322;-0.01;0.05;-1.00;-0.01;-151;120;-8715
35341;-0.01;0.05;-1.00;-0.01;-165;125;-8705
35361;-0.01;0.05;-1.00;-0.01;-169;145;-8693
35381;-0.01;0.05;-1.00;-0.01;-174;159;-8713
35401;-0.01;0.05;-1.00;-0.01;-182;170;-8741
35424;-0.01;0.06;-1.00;-0.01;-187;150;-8772
35444;-0.01;0.06;-1.00;-0.01;-170;137;-8815
35465;-0.01;0.06;-1.00;-0.01;-157;163;-8855
35485;-0.01;0.06;-1.00;-0.01;-168;198;-8886
35504;-0.01;0.06;-1.00;-0.01;-164;207;-8908
35524;-0.01;0.05;-1.00;-0.01;-178;197;-8900
35545;-0.01;0.05;-1.00;-0.01;-206;180;-8860
35565;-0.01;0.05;-1.00;-0.01;-236;159;-8813
35584;-0.01;0.05;-1.00;-0.01;-254;149;-8780
35604;-0.01;0.05;-1.00;-0.01;-262;160;-8763
35625;-0.01;0.05;-1.00;-0.01;-245;171;-8766
35648;-0.01;0.05;-1.00;-0.01;-228;156;-8753
35667;-0.01;0.05;-1.00;-0.01;-209;135;-8736
35688;-0.01;0.05;-1.00;-0.01;-195;114;-8725
35709;-0.01;0.05;-1.00;-0.01;-193;96;-8691
35729;-0.01;0.05;-1.00;-0.01;21458;-2899;-137
35751;-0.01;0.06;-1.00;-0.01;-196;175;-8651
35947;-0.01;0.06;-1.00;-0.01;-169;128;-8654
35968;-0.01;0.06;-1.00;-0.01;-177;100;-8630
35987;-0.01;0.06;-1.00;-0.01;-208;114;-8588
36007;-0.01;0.06;-1.00;-0.01;-247;141;-8559
36027;-0.01;0.06;-1.00;-0.01;-272;190;-8563
36049;-0.01;0.06;-1.00;-0.01;-286;224;-8612
36081;-0.01;0.06;-1.00;-0.01;-286;171;-8581
36100;-0.01;0.06;-1.00;-0.01;-285;183;-8617
36121;-0.02;0.06;-1.00;-0.01;-261;186;-8695
36142;-0.02;0.06;-1.00;-0.01;-231;175;-8786
36160;-0.02;0.06;-1.00;-0.01;-203;151;-8838
36180;-0.02;0.06;-1.00;-0.01;-193;121;-8841
36201;-0.02;0.06;-1.00;-0.01;-201;93;-8794
36222;-0.01;0.06;-1.00;-0.01;-226;91;-8729
36240;-0.02;0.06;-1.00;-0.01;-259;106;-8684
36259;-0.02;0.06;-1.00;-0.01;-267;117;-8661
36281;-0.02;0.06;-1.00;-0.01;-256;129;-8665
36305;-0.02;0.06;-1.00;-0.01;-248;136;-8698
36324;-0.02;0.06;-1.00;-0.01;-233;138;-8748
36343;-0.02;0.06;-1.00;-0.01;-230;141;-8794
36364;-0.02;0.06;-1.00;-0.01;-227;146;-8838
36384;-0.02;0.06;-1.00;-0.01;-236;164;-8854
36404;-0.02;0.06;-1.00;-0.01;-253;183;-8828
36423;-0.02;0.06;-1.00;-0.01;-277;190;-8779
36444;-0.02;0.06;-1.00;-0.01;-287;182;-8734
36464;-0.02;0.06;-1.00;-0.01;-282;168;-8715
36484;-0.02;0.06;-1.00;-0.01;-269;126;-8708
36503;-0.02;0.06;-1.00;-0.01;-250;75;-8695
36527;-0.02;0.06;-1.00;-0.01;-238;57;-8686
36561;-0.01;0.06;-1.00;-0.01;-343;157;-8584
36580;-0.01;0.06;-1.00;-0.01;-327;166;-8618
36599;-0.01;0.06;-1.00;-0.01;-308;170;-8682
36620;-0.02;0.06;-1.00;-0.01;-281;158;-8749
36640;-0.01;0.06;-1.00;-0.01;-258;137;-8785
36660;-0.01;0.06;-1.00;-0.01;-262;140;-8784
36679;-0.01;0.06;-1.00;-0.01;-271;157;-8765
36700;-0.01;0.06;-1.00;-0.01;-264;158;-8729
36720;-0.01;0.06;-1.00;-0.01;-265;143;-8698
36740;-0.01;0.06;-1.00;-0.01;-278;137;-8657
36759;-0.01;0.06;-1.00;-0.01;-295;140;-8604
36783;-0.01;0.06;-1.00;-0.01;-299;131;-8571
36803;-0.01;0.05;-1.00;-0.01;-286;114;-8575
36823;-0.01;0.05;-1.00;-0.01;-257;107;-8626
36842;-0.01;0.05;-1.00;-0.01;-230;117;-8695
36863;-0.01;0.05;-1.00;-0.01;-213;123;-8739
36883;-0.01;0.05;-1.00;-0.01;-221;130;-8731
36903;-0.01;0.05;-1.00;-0.01;-240;135;-8679
36922;-0.01;0.05;-1.00;-0.01;-257;130;-8603
36942;-0.01;0.05;-1.00;-0.01;-273;123;-8538
36963;-0.01;0.05;-1.00;-0.01;-271;115;-8509
36982;-0.01;0.05;-1.00;-0.01;-244;94;-8508
37005;-0.01;0.05;-1.00;-0.01;-219;64;-8515
37025;-0.01;0.05;-1.00;-0.01;-219;54;-8525
37060;-0.01;0.06;-1.00;-0.01;-190;99;-8737
37080;-0.01;0.05;-1.00;-0.01;-202;99;-8721
37099;-0.01;0.05;-1.00;-0.01;-223;106;-8678
37120;-0.01;0.05;-1.00;-0.01;-249;112;-8647
37140;-0.01;0.05;-1.00;-0.01;-252;100;-8620
37162;-0.01;0.05;-1.00;-0.01;-243;79;-8603
37182;-0.01;0.05;-1.00;-0.01;-238;82;-8609
37209;-0.01;0.06;-1.00;-0.01;-235;119;-8644
37228;-0.01;0.06;-1.00;-0.01;-221;166;-8689
38250;-0.01;0.05;-1.00;0.01;-117;-163;-8646
38273;-0.01;0.05;-1.00;0.01;-131;-166;-8614
38293;-0.01;0.05;-1.00;0.01;-168;-178;-8565
38315;-0.01;0.05;-1.00;0.01;-187;-199;-8540
38334;-0.01;0.05;-1.00;0.01;-172;-243;-8577
38353;-0.01;0.05;-1.00;0.01;-132;-251;-8662
38374;-0.01;0.05;-1.00;0.01;-107;-222;-8729
38395;-0.01;0.05;-1.00;0.01;-106;-168;-8750
38414;-0.01;0.05;-1.00;0.01;-140;-104;-8743
38433;-0.01;0.05;-1.00;0.01;-181;-76;-8712
38454;-0.01;0.05;-1.00;0.01;-191;-66;-8683
38474;-0.01;0.05;-1.00;0.01;-193;-60;-8684
38498;-0.01;0.05;-1.00;0.01;-193;-46;-8686
38517;-0.01;0.05;-1.00;0.01;-181;-58;-8699
38538;-0.01;0.05;-1.00;0.01;-847;-154;876
38570;-0.01;0.05;-1.00;0.01;-147;-163;-8766
38589;-0.01;0.05;-1.00;0.01;-154;-192;-8706
38609;-0.01;0.05;-1.00;0.01;-162;-204;-8655
38629;-0.01;0.05;-1.00;0.01;-168;-188;-8650
38650;-0.01;0.05;-1.00;0.01;-150;-182;-8680
38669;-0.01;0.05;-1.00;0.01;-122;-197;-8717
38688;-0.01;0.05;-1.00;0.01;-98;-212;-8729
38710;-0.01;0.05;-1.00;0.01;-102;-227;-8721
38730;-0.01;0.05;-1.00;0.01;-134;-207;-8695
38753;-0.01;0.05;-1.00;0.01;-169;-177;-8661
38776;-0.01;0.05;-1.00;0.01;-193;-143;-8643
38797;-0.01;0.05;-1.00;0.01;-201;-113;-8646
38817;-0.01;0.05;-1.00;0.01;-194;-96;-8656
38837;-0.01;0.05;-1.00;0.01;-193;-105;-8646
38856;-0.01;0.05;-1.00;0.01;-190;-142;-8635
38877;-0.01;0.05;-1.00;0.01;-179;-184;-8651
38897;-0.01;0.05;-1.00;0.01;-170;-201;-8690
38917;-0.01;0.05;-1.00;0.01;-158;-186;-8738
38936;-0.01;0.05;-1.00;0.01;-156;-157;-8768
38958;-0.01;0.05;-1.00;0.01;-147;-156;-8788
38981;-0.01;0.05;-1.00;0.01;-146;-178;-8760
39001;-0.01;0.05;-1.00;0.01;-164;-208;-8687
39020;-0.01;0.05;-1.00;0.01;-190;-240;-8599
39049;-0.01;0.05;-1.00;0.01;-104;-227;-8797
39069;-0.01;0.05;-1.00;0.02;-126;-221;-8762
39089;-0.01;0.05;-1.00;0.02;-169;-236;-8711
39108;-0.01;0.05;-1.00;0.02;-193;-243;-8662
39130;-0.01;0.05;-1.00;0.02;-205;-233;-8636
39150;-0.01;0.05;-1.00;0.02;-197;-215;-8633
39170;-0.01;0.05;-1.00;0.02;-200;-195;-8635
39189;-0.01;0.05;-1.00;0.02;-204;-183;-8634
39214;-0.01;0.05;-1.00;0.02;-213;-158;-8628
39236;-0.01;0.05;-1.00;0.02;-218;-167;-8650
39256;-0.01;0.05;-1.00;0.02;-200;-202;-8685
39275;-0.01;0.05;-1.00;0.02;-195;-223;-8715
39297;-0.01;0.05;-1.00;0.02;-190;-233;-8738
39317;-0.01;0.05;-1.00;0.02;-178;-243;-8771
39337;-0.01;0.05;-1.00;0.02;-155;-259;-8790
39356;-0.01;0.05;-1.00;0.02;-130;-291;-8793
39377;-0.01;0.05;-1.00;0.02;-131;-325;-8754
39397;-0.01;0.05;-1.00;0.02;-154;-342;-8692
39416;-0.01;0.05;-1.00;0.02;-177;-355;-8655
39436;-0.01;0.05;-1.00;0.02;-192;-368;-8619
39461;-0.01;0.05;-1.00;0.02;-190;-389;-8616
39481;-0.01;0.05;-1.00;0.02;-155;-417;-8638
39500;-0.01;0.05;-1.00;0.02;-119;-428;-8684
39529;-0.01;0.05;-1.00;0.02;-145;-312;-8756
39550;-0.01;0.05;-1.00;0.02;-126;-350;-8770
39570;-0.01;0.05;-1.00;0.02;-125;-365;-8769
39590;-0.01;0.05;-1.00;0.02;-117;-351;-8808
39609;-0.01;0.05;-1.00;0.02;-104;-316;-8855
39630;-0.01;0.05;-1.00;0.02;-106;-299;-8842
39651;-0.01;0.05;-1.00;0.02;-117;-297;-8786
39670;-0.01;0.05;-1.00;0.02;-135;-296;-8715
39693;-0.01;0.05;-1.00;0.02;-158;-311;-8635
39713;-0.01;0.05;-1.00;0.02;-168;-330;-8589
39733;-0.01;0.05;-1.00;0.02;-154;-353;-8581
39751;-0.01;0.05;-1.00;0.02;-136;-374;-8596
39772;-0.01;0.05;-1.00;0.02;-108;-384;-8617
39793;-0.01;0.05;-1.00;0.02;-76;-395;-8645
39813;-0.01;0.05;-1.00;0.02;-57;-407;-8648
39831;-0.01;0.05;-1.00;0.02;-66;-405;-8644
39852;-0.01;0.05;-1.00;0.02;-80;-393;-8647
39873;-0.01;0.05;-1.00;0.02;-101;-373;-8633
39893;-0.01;0.05;-1.00;0.02;-116;-363;-8616
39912;-0.01;0.05;-1.00;0.02;-106;-378;-8601
39936;-0.01;0.05;-1.00;0.02;-93;-414;-8583
39956;-0.01;0.05;-1.00;0.02;-93;-453;-8570
39976;-0.01;0.05;-1.00;0.02;-101;-467;-8574
39996;-0.01;0.05;-1.00;0.02;-108;-453;-8621
40019;-0.00;0.05;-1.00;0.02;-87;-439;-8739
40039;-0.00;0.05;-1.00;0.02;-74;-435;-8776
40059;-0.00;0.05;-1.00;0.02;-45;-437;-8827
40079;-0.00;0.05;-1.00;0.02;-34;-422;-8851
40098;-0.00;0.05;-1.00;0.02;-58;-400;-8832
40119;-0.00;0.05;-1.00;0.02;-92;-382;-8773
40138;-0.00;0.05;-1.00;0.02;-123;-393;-8704
40163;-0.00;0.05;-1.00;0.02;-110;-430;-8650
40181;-0.00;0.05;-1.00;0.02;-86;-452;-8638
40202;-0.00;0.05;-1.00;0.02;-82;-452;-8637
40222;-0.00;0.05;-1.00;0.02;-81;-437;-8658
40243;-0.00;0.05;-1.00;0.02;-65;-411;-8696
40261;-0.00;0.05;-1.00;0.02;-49;-380;-8731
40281;-0.00;0.05;-1.00;0.02;-42;-365;-8739
40302;-0.00;0.05;-1.00;0.02;-39;-375;-8702
40322;-0.00;0.05;-1.00;0.02;-45;-414;-8646
40341;-0.00;0.05;-1.00;0.02;-63;-452;-8572
40361;-0.00;0.05;-1.00;0.02;-82;-462;-8509
40382;-0.00;0.05;-1.00;0.02;-80;-465;-8520
40405;-0.00;0.05;-1.00;0.02;-54;-436;-8590
40423;-0.00;0.05;-1.00;0.02;-31;-381;-8672
40445;-0.00;0.05;-1.00;0.02;-19;-333;-8744
40466;-0.00;0.05;-1.00;0.02;-17;-313;-8766
40485;-0.00;0.05;-1.00;0.02;-24;-351;-8752
40508;-0.00;0.05;-1.00;0.02;-81;-353;-8687
40530;-0.00;0.05;-1.00;0.02;-90;-380;-8613
40551;-0.00;0.05;-1.00;0.02;-104;-405;-8540
40570;-0.00;0.05;-1.00;0.02;-121;-398;-8512
40588;-0.00;0.05;-1.00;0.02;-112;-386;-8552
40609;-0.00;0.05;-1.00;0.02;-92;-380;-8613
40634;-0.00;0.05;-1.00;0.02;-63;-373;-8669
40653;-0.00;0.05;-1.00;0.02;-39;-372;-8703
40675;-0.00;0.05;-1.00;0.02;-30;-377;-8692
40701;-0.00;0.05;-1.00;0.02;-38;-411;-8655
40719;-0.00;0.05;-1.00;0.02;-40;-429;-8615
40737;-0.00;0.05;-1.00;0.02;-69;-410;-8569
40758;-0.00;0.05;-1.00;0.02;-88;-372;-8556
40778;-0.00;0.05;-1.00;0.02;-83;-334;-8568
40799;-0.00;0.05;-1.00;0.02;-67;-335;-8556
40817;-0.00;0.05;-1.00;0.02;-54;-359;-8536
40837;-0.00;0.05;-1.00;0.02;-42;-396;-8528
40858;-0.00;0.05;-1.00;0.02;-42;-449;-8553
40889;-0.00;0.05;-1.00;0.02;-30;-476;-8607
40910;-0.00;0.05;-1.00;0.02;-11;-456;-8692
40931;-0.00;0.05;-1.00;0.02;-3;-401;-8780
40950;-0.00;0.05;-1.00;0.02;-5;-345;-8821
40979;-0.00;0.05;-1.00;0.03;-18;-399;-8760
41000;-0.00;0.05;-1.00;0.03;-26;-373;-8757
41020;-0.00;0.05;-1.00;0.03;-16;-379;-8744
41038;-0.00;0.05;-1.00;0.03;-15;-400;-8718
41059;-0.00;0.05;-1.00;0.03;-13;-440;-8689
41079;-0.00;0.05;-1.00;0.03;6;-482;-8678
41100;-0.00;0.05;-1.00;0.03;17;-502;-8682
41118;-0.00;0.05;-1.00;0.03;21;-491;-8696
41143;-0.00;0.05;-1.00;0.03;21;-471;-8722
41163;-0.00;0.05;-1.00;0.03;26;-472;-8731
41182;-0.00;0.05;-1.00;0.03;25;-477;-8712
41200;-0.00;0.05;-1.00;0.03;12;-469;-8690
41222;-0.00;0.05;-1.00;0.03;-3;-467;-8679
41243;-0.00;0.05;-1.00;0.03;-7;-459;-8684
41262;-0.00;0.05;-1.00;0.03;-4;-470;-8711
41280;-0.00;0.05;-1.00;0.03;12;-490;-8744
41302;-0.00;0.05;-1.00;0.03;18;-483;-8755
41322;-0.00;0.05;-1.00;0.03;12;-474;-8761
41342;-0.00;0.05;-1.00;0.03;9;-474;-8742
41360;-0.00;0.05;-1.00;0.03;10;-471;-8691
41385;-0.00;0.05;-1.00;0.03;6;-478;-8639
41405;-0.00;0.05;-1.00;0.03;0;-495;-8587
41424;-0.00;0.05;-1.00;0.03;3;-519;-8555
41443;-0.00;0.05;-1.00;0.03;1;-523;-8554
42478;-0.00;0.05;-1.00;0.02;-90;-329;-8583
42498;-0.00;0.05;-1.00;0.02;-64;-334;-8641
42516;-0.00;0.05;-1.00;0.02;-36;-370;-8667
42537;-0.00;0.05;-1.00;0.02;-28;-400;-8689
42558;-0.00;0.05;-1.00;0.02;-35;-439;-8674
42578;-0.00;0.05;-1.00;0.02;-56;-450;-8636
42596;-0.00;0.05;-1.00;0.02;-78;-388;-8627
42616;-0.00;0.05;-1.00;0.02;-85;-317;-8647
42635;-0.00;0.05;-1.00;0.02;-64;-271;-8711
42655;-0.00;0.05;-1.00;0.02;-49;-256;-8781
42674;-0.00;0.05;-1.00;0.02;-44;-277;-8816
42693;-0.00;0.05;-1.00;0.02;-43;-308;-8839
42715;-0.00;0.05;-1.00;0.02;-36;-326;-8860
42734;-0.00;0.05;-1.00;0.02;-34;-331;-8850
42754;-0.00;0.05;-1.00;0.02;-31;-332;-8812
42773;-0.00;0.05;-1.00;0.02;-34;-352;-8753
42795;-0.00;0.05;-1.00;0.02;-36;-372;-8689
42814;-0.00;0.05;-1.00;0.02;-40;-374;-8656
42833;-0.00;0.05;-1.00;0.02;-36;-370;-8639
42857;-0.00;0.05;-1.00;0.02;-26;-354;-8654
42877;-0.00;0.05;-1.00;0.02;3;-351;-8682
42897;-0.00;0.05;-1.00;0.02;28;-392;-8672
42917;-0.00;0.05;-1.00;0.02;42;-458;-8640
42937;-0.00;0.05;-1.00;0.02;45;-530;-8598
42956;0.80;-0.48;1.16;-1.67;378;0;-2
42988;-0.00;0.05;-1.00;0.02;-46;-377;-8618
43008;-0.00;0.05;-1.00;0.02;-51;-357;-8641
43028;-0.00;0.05;-1.00;0.02;-34;-336;-8679
43048;-0.00;0.05;-1.00;0.02;6;-351;-8728
43068;-0.00;0.05;-1.00;0.02;40;-388;-8743
43088;-0.00;0.05;-1.00;0.02;41;-443;-8724
43112;-0.00;0.05;-1.00;0.02;11;-475;-8667
43133;-0.00;0.05;-1.00;0.02;-34;-455;-8614
43156;-0.00;0.05;-1.00;0.02;-54;-406;-8629
43175;-0.00;0.05;-1.00;0.02;-19;-354;-8727
43194;-0.00;0.05;-1.00;0.02;28;-337;-8838
43214;-0.00;0.05;-1.00;0.02;52;-368;-8878
43235;-0.00;0.05;-1.00;0.02;57;-425;-8856
43254;-0.00;0.05;-1.00;0.02;24;-463;-8796
43275;-0.00;0.05;-1.00;0.02;-11;-444;-8735
43294;-0.00;0.05;-1.00;0.02;-26;-410;-8713
43315;-0.00;0.05;-1.00;0.02;-11;-392;-8714
43335;-0.00;0.05;-1.00;0.02;-3;-404;-8701
43358;-0.00;0.05;-1.00;0.02;6;-435;-8664
43377;-0.00;0.05;-1.00;0.02;8;-435;-8632
43399;-0.00;0.05;-1.00;0.02;-11;-398;-8628
43418;-0.00;0.05;-1.00;0.02;-14;-354;-8643
43438;-0.00;0.05;-1.00;0.02;-2;-356;-8665
43467;-0.00;0.05;-1.00;0.02;-4;-395;-8665
43489;-0.00;0.05;-1.00;0.02;-20;-410;-8652
43509;-0.00;0.05;-1.00;0.02;-34;-381;-8647
43528;-0.00;0.05;-1.00;0.02;-42;-352;-8653
43548;-0.00;0.05;-1.00;0.02;-52;-350;-8669
43569;-0.00;0.05;-1.00;0.02;-32;-345;-8699
43589;-0.00;0.05;-1.00;0.02;-35;-352;-8686
43611;-0.00;0.05;-1.00;0.02;-49;-380;-8629
43632;-0.00;0.05;-1.00;0.02;-42;-415;-8581
43654;-0.00;0.05;-1.00;0.02;-23;-458;-8556
43672;-0.00;0.05;-1.00;0.02;-15;-485;-8535
43691;-0.00;0.05;-1.00;0.02;-24;-476;-8540
43712;-0.00;0.05;-1.00;0.02;-16;-456;-8581
43734;-0.00;0.05;-1.00;0.02;-5;-432;-8635
43752;-0.00;0.05;-1.00;0.02;2;-404;-8673
43772;-0.00;0.05;-1.00;0.02;4;-398;-8655
43793;-0.00;0.05;-1.00;0.02;-7;-396;-8597
43814;-0.00;0.05;-1.00;0.02;-31;-411;-8551
43835;-0.00;0.05;-1.00;0.02;-31;-437;-8539
43856;-0.00;0.05;-1.00;0.02;-40;-451;-8564
43877;-0.00;0.05;-1.00;0.02;-43;-411;-8660
43896;-0.00;0.05;-1.00;0.02;-17;-352;-8774
43916;-0.00;0.05;-1.00;0.02;12;-324;-8844
43935;-0.00;0.05;-1.00;0.02;-24261;-44;838
43967;-0.00;0.05;-1.00;0.03;-35;-506;-8580
43987;-0.00;0.05;-1.00;0.03;-22;-480;-8615
44006;-0.00;0.05;-1.00;0.03;0;-455;-8681
44026;-0.00;0.05;-1.00;0.03;16;-425;-8721
44047;-0.00;0.05;-1.00;0.03;-3;-403;-8695
44067;-0.00;0.05;-1.00;0.03;-41;-413;-8608
44092;-0.00;0.05;-1.00;0.03;-65;-462;-8537
44113;-0.00;0.05;-1.00;0.03;-62;-500;-8525
44139;-0.00;0.05;-1.00;0.03;-36;-504;-8599
44158;-0.00;0.05;-1.00;0.03;-1;-477;-8702
44178;-0.00;0.05;-1.00;0.03;18;-453;-8761
44198;-0.00;0.05;-1.00;0.03;22;-444;-8744
44218;-0.00;0.05;-1.00;0.03;11;-461;-8680
44237;-0.00;0.05;-1.00;0.03;-17;-478;-8589
44258;-0.00;0.05;-1.00;0.03;-46;-472;-8531
44277;-0.00;0.05;-1.00;0.03;-59;-474;-8521
44298;-0.00;0.05;-1.00;0.03;-55;-482;-8558
44317;-0.00;0.05;-1.00;0.03;-34;-457;-8655
44342;-0.00;0.05;-1.00;0.03;-9;-419;-8771
44360;-0.00;0.05;-1.00;0.03;8;-396;-8846
44380;-0.00;0.05;-1.00;0.03;10;-409;-8867
44401;-0.00;0.05;-1.00;0.03;-13;-423;-8837
44422;-0.00;0.05;-1.00;0.03;-53;-411;-8770
44447;-0.00;0.05;-1.00;0.03;28;-493;-8690
44468;-0.00;0.05;-1.00;0.03;-6;-504;-8610
44488;-0.00;0.05;-1.00;0.03;-46;-505;-8549
44509;-0.00;0.05;-1.00;0.03;-77;-480;-8548
44527;-0.00;0.05;-1.00;0.03;-75;-438;-8604
44548;-0.00;0.05;-1.00;0.03;-41;-425;-8688
44569;-0.00;0.05;-1.00;0.03;7;-429;-8771
44592;-0.00;0.05;-1.00;0.03;34;-452;-8816
44610;-0.00;0.05;-1.00;0.03;32;-478;-8788
44632;-0.00;0.05;-1.00;0.03;-10;-483;-8716
44652;-0.00;0.05;-1.00;0.03;-44;-465;-8659
44672;-0.00;0.05;-1.00;0.03;-58;-453;-8620
44690;-0.00;0.05;-1.00;0.03;-59;-446;-8596
44712;-0.00;0.05;-1.00;0.03;-38;-450;-8605
44732;-0.00;0.05;-1.00;0.03;-21;-476;-8599
44752;-0.00;0.05;-1.00;0.03;-10;-505;-8584
44770;-0.00;0.05;-1.00;0.03;-8;-509;-8600
44791;-0.00;0.05;-1.00;0.03;-4;-488;-8653
44815;-0.00;0.05;-1.00;0.03;-1;-467;-8702
44833;-0.00;0.05;-1.00;0.03;-1;-447;-8733
44854;-0.00;0.05;-1.00;0.03;-4;-442;-8752
44874;-0.00;0.05;-1.00;0.03;-1;-471;-8770
44895;-0.00;0.05;-1.00;0.03;6;-511;-8767
44913;-0.00;0.05;-1.00;0.03;2;-529;-8745
44937;-0.00;0.05;-1.00;0.03;-21;-510;-8721
44957;-0.00;0.05;-1.00;0.03;-6;-494;-8768
44978;-0.00;0.05;-1.00;0.03;8;-478;-8796
44996;-0.00;0.05;-1.00;0.03;9;-465;-8801
45016;-0.00;0.05;-1.00;0.03;-6;-469;-8773
45037;-0.00;0.05;-1.00;0.03;-30;-473;-8726
45060;-0.00;0.05;-1.00;0.03;-44;-476;-8715
45079;-0.00;0.05;-1.00;0.03;-44;-482;-8724
45100;-0.00;0.05;-1.00;0.03;-28;-494;-8742
45119;-0.00;0.05;-1.00;0.03;-1;-524;-8757
45140;-0.00;0.05;-1.00;0.03;13;-551;-8740
45159;-0.00;0.05;-1.00;0.03;2;-565;-8697
45180;-0.00;0.05;-1.00;0.03;-23;-575;-8640
45199;-0.00;0.05;-1.00;0.03;-44;-575;-8588
45218;-0.00;0.05;-1.00;0.03;-58;-572;-8556
45239;-0.00;0.05;-1.00;0.03;-55;-565;-8555
45258;-0.00;0.05;-1.00;0.03;-40;-553;-8599
45279;-0.00;0.05;-1.00;0.03;-42;-551;-8635
45302;-0.00;0.05;-1.00;0.03;-50;-543;-8661
45323;-0.00;0.05;-1.00;0.03;-52;-544;-8702
45341;-0.00;0.05;-1.00;0.03;-46;-558;-8733
45362;-0.00;0.05;-1.00;0.03;-51;-547;-8755
45382;-0.00;0.05;-1.00;0.03;-55;-505;-8770
45403;-0.00;0.05;-1.00;0.03;-56;-482;-8778
45426;-0.00;0.05;-1.00;0.03;12;-616;-8591
45447;-0.00;0.05;-1.00;0.03;-14;-585;-8563
45467;-0.00;0.05;-1.00;0.03;-22;-532;-8595
45488;-0.00;0.05;-1.00;0.03;-20;-488;-8663
45507;-0.00;0.05;-1.00;0.03;-7;-485;-8729
45529;-0.00;0.05;-1.00;0.03;19;-525;-8770
45554;-0.00;0.05;-1.00;0.03;37;-559;-8769
45573;-0.00;0.05;-1.00;0.03;32;-575;-8735
45593;-0.00;0.05;-1.00;0.03;14;-565;-8699
45614;-0.00;0.05;-1.00;0.03;-17;-540;-8677
45634;-0.00;0.05;-1.00;0.03;-30;-519;-8675
45653;-0.00;0.05;-1.00;0.03;-6;-523;-8704
46676;-0.00;0.05;-1.00;0.04;45;-664;-8603
46697;-0.00;0.05;-1.00;0.04;42;-665;-8622
46717;-0.00;0.05;-1.00;0.04;35;-647;-8669
46735;-0.00;0.05;-1.00;0.04;39;-620;-8742
46755;-0.00;0.05;-1.00;0.04;66;-603;-8812
46777;-0.00;0.05;-1.00;0.04;81;-575;-8835
46800;-0.00;0.05;-1.00;0.04;57;-546;-8797
46819;-0.00;0.05;-1.00;0.04;40;-536;-8730
46839;-0.00;0.05;-1.00;0.04;18;-559;-8663
46859;-0.00;0.05;-1.00;0.04;7;-591;-8627
46878;-0.00;0.05;-1.00;0.04;18;-615;-8648
46899;-0.00;0.05;-1.00;0.03;36;-638;-8682
46925;-0.00;0.05;-1.00;0.03;8;-592;-8571
46946;-0.00;0.05;-1.00;0.03;-9;-600;-8572
46965;-0.00;0.05;-1.00;0.03;-15;-618;-8611
46986;-0.00;0.05;-1.00;0.03;1;-628;-8666
47005;-0.00;0.05;-1.00;0.03;27;-629;-8734
47026;-0.00;0.05;-1.00;0.03;38;-604;-8768
47049;-0.00;0.05;-1.00;0.03;28;-558;-8762
47069;-0.00;0.05;-1.00;0.03;11;-541;-8739
47088;-0.00;0.05;-1.00;0.03;7;-549;-8702
47108;0.00;0.05;-1.00;0.03;1;-575;-8662
47129;0.00;0.05;-1.00;0.03;4;-596;-8613
47149;0.00;0.05;-1.00;0.03;4;-590;-8572
47167;0.00;0.05;-1.00;0.03;-3;-568;-8556
47188;0.00;0.05;-1.00;0.03;5;-552;-8576
47208;0.00;0.05;-1.00;0.03;22;-542;-8609
47228;-0.00;0.05;-1.00;0.03;23;-521;-8643
47247;0.00;0.05;-1.00;0.03;18;-519;-8652
47266;0.00;0.05;-1.00;0.03;14;-545;-8634
47292;0.00;0.05;-1.00;0.03;11;-563;-8620
47310;0.00;0.05;-1.00;0.03;8;-573;-8614
47329;0.00;0.05;-1.00;0.03;15;-580;-8617
47350;0.00;0.05;-1.00;0.03;16;-568;-8650
47371;0.00;0.05;-1.00;0.03;19;-548;-8681
47389;0.00;0.05;-1.00;0.03;31;-567;-8689
47416;0.00;0.04;-1.00;0.03;69;-611;-8679
47437;0.00;0.04;-1.00;0.04;67;-640;-8623
47458;0.00;0.04;-1.00;0.04;50;-632;-8597
47476;0.00;0.04;-1.00;0.04;30;-600;-8615
47495;0.00;0.04;-1.00;0.04;29;-559;-8675
47516;0.00;0.04;-1.00;0.03;39;-521;-8753
47540;0.00;0.04;-1.00;0.03;70;-511;-8823
47560;0.00;0.04;-1.00;0.03;98;-535;-8850
47581;0.00;0.04;-1.00;0.03;106;-584;-8813
47608;0.00;0.04;-1.00;0.03;110;-658;-8737
47627;0.00;0.04;-1.00;0.04;108;-711;-8644
47645;0.00;0.04;-1.00;0.04;94;-702;-8599
47666;0.00;0.04;-1.00;0.04;84;-650;-8616
47687;0.00;0.04;-1.00;0.04;89;-596;-8655
47707;0.00;0.04;-1.00;0.04;88;-574;-8688
47725;0.00;0.04;-1.00;0.04;90;-571;-8699
47746;0.00;0.04;-1.00;0.04;84;-588;-8689
47766;0.00;0.04;-1.00;0.04;69;-608;-8679
47789;0.00;0.04;-1.00;0.04;69;-622;-8698
47809;0.00;0.04;-1.00;0.04;73;-646;-8720
47829;0.00;0.04;-1.00;0.04;87;-646;-8734
47849;0.00;0.04;-1.00;0.04;97;-630;-8757
47869;0.00;0.04;-1.00;0.04;105;-597;-8774
47895;0.01;0.04;-1.00;0.04;98;-606;-8635
47915;0.01;0.04;-1.00;0.03;105;-587;-8674
47935;0.01;0.04;-1.00;0.03;98;-586;-8689
47955;0.01;0.04;-1.00;0.03;94;-605;-8682
47975;0.01;0.04;-1.00;0.03;90;-614;-8678
47995;0.01;0.04;-1.00;0.03;99;-619;-8698
48015;0.01;0.04;-1.00;0.03;118;-623;-8710
48040;0.01;0.04;-1.00;0.03;126;-614;-8718
48059;0.01;0.04;-1.00;0.03;114;-587;-8699
48077;0.01;0.05;-1.00;0.03;87;-544;-8675
48098;0.01;0.05;-1.00;0.03;78;-515;-8674
48119;0.01;0.05;-1.00;0.03;71;-500;-8668
48139;0.01;0.05;-1.00;0.03;75;-509;-8646
48157;0.01;0.05;-1.00;0.03;97;-539;-8608
48178;0.01;0.04;-1.00;0.03;112;-586;-8570
48199;0.01;0.04;-1.00;0.03;105;-636;-8518
48219;0.01;0.04;-1.00;0.03;93;-675;-8478
48238;0.01;0.04;-1.00;0.03;83;-684;-8463
48258;0.01;0.04;-1.00;0.03;91;-663;-8512
48283;0.01;0.05;-1.00;0.03;112;-606;-8589
48302;0.01;0.05;-1.00;0.03;118;-548;-8667
48320;0.01;0.05;-1.00;0.03;136;-532;-8729
48342;0.01;0.05;-1.00;0.03;150;-561;-8752
48363;0.01;0.05;-1.00;0.03;138;-594;-8743
48386;0.00;0.05;-1.00;0.03;184;-587;-8728
48404;0.00;0.05;-1.00;0.03;177;-624;-8703
48426;0.00;0.05;-1.00;0.03;141;-629;-8675
48446;0.00;0.05;-1.00;0.03;106;-629;-8658
48466;0.00;0.05;-1.00;0.03;107;-635;-8687
48484;0.00;0.05;-1.00;0.03;142;-629;-8741
48506;0.00;0.05;-1.00;0.03;162;-579;-8778
48529;0.00;0.05;-1.00;0.03;157;-512;-8783
48549;0.01;0.05;-1.00;0.03;146;-473;-8759
48568;0.01;0.05;-1.00;0.03;126;-481;-8699
48589;0.01;0.05;-1.00;0.03;99;-514;-8634
48610;0.01;0.05;-1.00;0.03;85;-543;-8575
48628;0.01;0.04;-1.00;0.03;67;-549;-8536
48648;0.01;0.05;-1.00;0.03;59;-529;-8535
48669;0.01;0.05;-1.00;0.03;66;-513;-8548
48690;0.01;0.05;-1.00;0.03;71;-515;-8585
48708;0.00;0.05;-1.00;0.03;97;-517;-8663
48728;0.00;0.05;-1.00;0.03;115;-514;-8708
48749;0.00;0.05;-1.00;0.03;100;-531;-8721
48772;0.00;0.04;-1.00;0.03;85;-534;-8729
48792;0.00;0.04;-1.00;0.03;58;-516;-8737
48812;0.00;0.04;-1.00;0.03;32;-512;-8760
48833;0.00;0.04;-1.00;0.03;60;-548;-8784
48865;0.00;0.04;-1.00;0.03;80;-536;-8726
48888;0.00;0.04;-1.00;0.03;64;-591;-8672
48907;0.00;0.04;-1.00;0.03;64;-625;-8645
48926;0.00;0.04;-1.00;0.03;68;-623;-8649
48948;0.00;0.04;-1.00;0.03;69;-595;-8661
48968;0.00;0.04;-1.00;0.03;74;-557;-8679
48987;0.00;0.04;-1.00;0.03;70;-531;-8667
49006;0.00;0.04;-1.00;0.03;63;-557;-8634
49028;0.00;0.04;-1.00;0.03;66;-602;-8605
49050;0.00;0.04;-1.00;0.03;57;-603;-8583
49070;0.00;0.04;-1.00;0.03;46;-577;-8605
49091;0.00;0.04;-1.00;0.03;62;-545;-8675
49112;0.00;0.04;-1.00;0.03;76;-507;-8714
49130;0.00;0.04;-1.00;0.03;80;-499;-8720
49150;0.00;0.04;-1.00;0.03;89;-527;-8701
49171;0.00;0.04;-1.00;0.03;76;-555;-8641
49192;0.00;0.04;-1.00;0.03;53;-591;-8554
49210;0.00;0.04;-1.00;0.03;44;-630;-8491
49229;0.00;0.04;-1.00;0.03;36;-632;-8474
49251;0.00;0.04;-1.00;0.03;33;-570;-8535
49271;0.00;0.04;-1.00;0.03;40;-517;-8620
49293;0.00;0.04;-1.00;0.03;55;-511;-8695
49313;0.00;0.04;-1.00;0.03;75;-533;-8745
49345;0.00;0.04;-1.00;0.04;79;-546;-8805
49365;0.00;0.04;-1.00;0.04;73;-550;-8777
49383;0.00;0.04;-1.00;0.04;53;-585;-8724
49404;0.00;0.04;-1.00;0.04;21;-608;-8660
49425;0.00;0.04;-1.00;0.04;-6;-597;-8605
49445;0.00;0.04;-1.00;0.04;-19;-578;-8586
49463;0.00;0.04;-1.00;0.04;2;-567;-8631
49483;0.00;0.04;-1.00;0.04;45;-557;-8698
49505;0.00;0.04;-1.00;0.04;73;-570;-8759
49524;0.00;0.04;-1.00;0.04;84;-592;-8773
49548;0.00;0.04;-1.00;0.04;74;-609;-8738
49567;0.00;0.04;-1.00;0.04;45;-630;-8679
49587;0.00;0.04;-1.00;0.04;32;-645;-8632
49607;0.00;0.04;-1.00;0.04;44;-643;-8625
49627;0.00;0.04;-1.00;0.04;64;-637;-8635
49647;0.00;0.04;-1.00;0.04;82;-626;-8645
49667;0.00;0.04;-1.00;0.04;83;-634;-8634
49687;0.00;0.04;-1.00;0.04;64;-647;-8608
49707;0.00;0.04;-1.00;0.04;60;-661;-8607
49726;0.00;0.04;-1.00;0.04;69;-680;-8631
49747;0.00;0.04;-1.00;0.04;74;-669;-8666
49766;0.00;0.04;-1.00;0.04;71;-622;-8722
49791;0.00;0.04;-1.00;0.04;73;-584;-8771
49809;0.00;0.04;-1.00;0.04;74;-566;-8770
49835;-0.00;0.05;-1.00;0.04;-34;-591;-8642
49856;-0.00;0.05;-1.00;0.04;-26;-564;-8681
50884;-0.00;0.05;-1.00;0.04;-23;-616;-8705
50903;-0.00;0.05;-1.00;0.04;-53;-669;-8614
50923;-0.00;0.05;-1.00;0.04;-71;-710;-8557
50944;-0.00;0.05;-1.00;0.04;-54;-725;-8554
50964;-0.00;0.05;-1.00;0.04;-26;-723;-8589
50983;-0.00;0.05;-1.00;0.04;1;-710;-8637
51002;-0.00;0.05;-1.00;0.04;26;-688;-8662
51024;-0.00;0.05;-1.00;0.04;26;-662;-8683
51047;-0.00;0.05;-1.00;0.04;16;-651;-8698
51068;-0.00;0.05;-1.00;0.04;13;-662;-8697
51093;-0.00;0.05;-1.00;0.04;18;-649;-8696
51113;-0.00;0.05;-1.00;0.04;16;-631;-8694
51131;-0.00;0.05;-1.00;0.04;1;-615;-8681
51149;-0.00;0.05;-1.00;0.04;-23;-593;-8676
51171;-0.00;0.05;-1.00;0.04;-37;-575;-8668
51192;-0.00;0.05;-1.00;0.04;-38;-581;-8669
51211;-0.00;0.05;-1.00;0.04;-26;-622;-8688
51229;-0.00;0.05;-1.00;0.04;8;-679;-8698
51251;-0.00;0.05;-1.00;0.04;25;-729;-8697
51272;-0.00;0.05;-1.00;0.04;34;-752;-8684
51294;-0.00;0.05;-1.00;0.04;30;-756;-8667
51324;-0.00;0.05;-1.00;0.04;-68;-612;-8635
51345;-0.00;0.05;-1.00;0.04;-72;-593;-8642
51365;-0.00;0.05;-1.00;0.04;-71;-605;-8629
51384;-0.00;0.05;-1.00;0.04;-61;-630;-8601
51403;-0.00;0.05;-1.00;0.04;-38;-672;-8572
51425;-0.00;0.05;-1.00;0.04;-30;-700;-8562
51444;-0.00;0.05;-1.00;0.04;-27;-702;-8579
51464;-0.00;0.05;-1.00;0.04;-33;-691;-8597
51483;-0.00;0.05;-1.00;0.04;-54;-661;-8613
51505;-0.00;0.05;-1.00;0.04;-63;-622;-8641
51527;-0.00;0.05;-1.00;0.04;-55;-596;-8667
51548;-0.00;0.05;-1.00;0.04;-43;-596;-8653
51567;-0.00;0.05;-1.00;0.04;-30;-620;-8633
51587;-0.00;0.05;-1.00;0.04;-20;-656;-8605
51607;-0.00;0.05;-1.00;0.04;-18;-706;-8566
51627;-0.00;0.05;-1.00;0.04;-14;-723;-8559
51647;-0.00;0.05;-1.00;0.04;-7;-702;-8584
51667;-0.00;0.05;-1.00;0.04;-7;-677;-8639
51687;-0.00;0.05;-1.00;0.04;7;-640;-8711
51707;-0.00;0.05;-1.00;0.04;32;-613;-8769
51727;-0.00;0.05;-1.00;0.04;51;-626;-8805
51746;-0.00;0.05;-1.00;0.04;62;-646;-8815
51771;-0.00;0.05;-1.00;0.04;66;-664;-8784
51790;-0.00;0.05;-1.00;0.04;55;-684;-8733
51814;-0.00;0.05;-1.00;0.04;-14;-616;-8677
51834;-0.00;0.05;-1.00;0.04;-18;-668;-8618
51855;-0.00;0.05;-1.00;0.04;-31;-699;-8586
51874;-0.00;0.05;-1.00;0.04;-23;-712;-8597
51894;-0.00;0.05;-1.00;0.04;-9;-709;-8623
51913;-0.00;0.05;-1.00;0.04;-3;-674;-8669
51935;-0.00;0.05;-1.00;0.04;-1;-644;-8724
51954;-0.00;0.05;-1.00;0.04;4;-643;-8753
51973;-0.00;0.05;-1.00;0.04;-6;-662;-8754
51993;-0.00;0.05;-1.00;0.04;-4;-671;-8756
52018;-0.00;0.05;-1.00;0.04;9;-674;-8748
52036;-0.00;0.05;-1.00;0.04;13;-678;-8736
52056;-0.00;0.05;-1.00;0.04;17;-709;-8706
52077;-0.00;0.05;-1.00;0.04;25;-744;-8686
52098;-0.00;0.05;-1.00;0.04;19;-752;-8674
52116;-0.00;0.05;-1.00;0.04;3;-745;-8689
52135;-0.00;0.05;-1.00;0.04;3;-737;-8728
52156;-0.00;0.05;-1.00;0.04;5;-705;-8754
52178;-0.00;0.05;-1.00;0.04;2;-686;-8745
52197;-0.00;0.05;-1.00;0.04;0;-686;-8714
52216;-0.00;0.05;-1.00;0.04;-5;-693;-8676
52242;-0.00;0.05;-1.00;0.04;-28;-701;-8640
52266;-0.00;0.05;-1.00;0.04;-52;-712;-8616
52293;-0.00;0.05;-1.00;0.04;30;-696;-8767
52313;-0.00;0.05;-1.00;0.04;30;-689;-8769
52334;-0.00;0.05;-1.00;0.04;13;-679;-8756
52355;-0.00;0.05;-1.00;0.04;-9;-677;-8712
52373;-0.00;0.05;-1.00;0.04;-29;-684;-8693
52392;-0.00;0.05;-1.00;0.04;-13;-710;-8697
52414;-0.00;0.05;-1.00;0.04;13;-750;-8685
52435;-0.00;0.05;-1.00;0.04;31;-795;-8669
52453;-0.00;0.05;-1.00;0.04;39;-815;-8635
52471;-0.00;0.05;-1.00;0.04;32;-813;-8608
52493;-0.00;0.05;-1.00;0.04;14;-781;-8609
52518;-0.00;0.05;-1.00;0.04;-9;-734;-8627
52536;-0.00;0.05;-1.00;0.04;-20;-712;-8652
52555;-0.00;0.05;-1.00;0.04;-15;-727;-8676
52577;-0.00;0.05;-1.00;0.04;-6;-744;-8674
52596;-0.00;0.05;-1.00;0.04;-19;-742;-8630
52616;-0.00;0.05;-1.00;0.04;-44;-738;-8571
52635;-0.00;0.05;-1.00;0.04;-62;-758;-8532
52657;-0.00;0.05;-1.00;0.04;-56;-746;-8552
52676;-0.00;0.05;-1.00;0.04;-45;-712;-8640
52696;-0.00;0.05;-1.00;0.04;-25;-696;-8730
52715;-0.00;0.05;-1.00;0.04;-12;-706;-8798
52737;-0.00;0.05;-1.00;0.04;1;-723;-8806
52759;-0.00;0.05;-1.00;0.04;-15;-752;-8754
52784;-0.00;0.04;-1.00;0.05;3;-904;-8615
52803;-0.00;0.04;-1.00;0.05;5;-943;-8547
52824;-0.00;0.04;-1.00;0.05;-15;-946;-8528
52843;-0.00;0.04;-1.00;0.05;-31;-929;-8568
52864;-0.01;0.04;-1.00;0.05;-32;-858;-8663
52883;-0.01;0.04;-1.00;0.05;-23;-772;-8770
52904;-0.01;0.04;-1.00;0.05;-14;-737;-8818
52923;-0.01;0.04;-1.00;0.05;-22;-752;-8814
52944;-0.00;0.04;-1.00;0.05;-21;-779;-8777
52964;-0.00;0.04;-1.00;0.05;-43;-781;-8719
52987;-0.00;0.04;-1.00;0.05;-72;-776;-8665
53008;-0.00;0.04;-1.00;0.05;-76;-786;-8635
53027;-0.01;0.04;-1.00;0.05;-56;-794;-8627
53047;-0.01;0.04;-1.00;0.05;-28;-792;-8657
53066;-0.01;0.04;-1.00;0.05;-6;-781;-8711
53088;-0.01;0.04;-1.00;0.05;1;-784;-8734
53108;-0.01;0.04;-1.00;0.05;3;-791;-8729
53127;-0.00;0.04;-1.00;0.05;-21;-777;-8692
53147;-0.00;0.04;-1.00;0.05;-57;-755;-8626
53168;-0.01;0.04;-1.00;0.05;-77;-756;-8576
53188;-0.01;0.04;-1.00;0.05;-74;-780;-8558
53207;-0.01;0.04;-1.00;0.05;-65;-809;-8557
53231;-0.01;0.04;-1.00;0.05;-53;-817;-8587
53253;-1.14;0.52;0.84;-0.58;732;-4;1
53273;-0.00;0.04;-1.00;0.04;2;-719;-8649
53293;-0.00;0.04;-1.00;0.04;-7;-731;-8630
53314;-0.00;0.04;-1.00;0.04;-22;-725;-8626
53335;-0.00;0.04;-1.00;0.04;-37;-715;-8637
53354;-0.00;0.04;-1.00;0.04;-58;-699;-8645
53373;-0.00;0.04;-1.00;0.04;-57;-666;-8678
53394;-0.00;0.04;-1.00;0.04;-45;-670;-8671
53415;-0.00;0.05;-1.00;0.04;-34;-682;-8648
53434;-0.00;0.05;-1.00;0.04;-23;-681;-8644
53452;-0.00;0.04;-1.00;0.04;-23;-685;-8638
53478;0.00;0.04;-1.00;0.04;-24;-687;-8625
53499;0.00;0.04;-1.00;0.04;-13;-671;-8637
53518;0.00;0.05;-1.00;0.04;7;-653;-8664
53539;0.00;0.05;-1.00;0.03;26;-625;-8698
53567;0.00;0.05;-1.00;0.03;38;-610;-8712
53586;0.00;0.05;-1.00;0.03;46;-596;-8713
53604;0.00;0.05;-1.00;0.03;46;-593;-8698
53624;0.00;0.05;-1.00;0.03;47;-593;-8679
53645;0.00;0.05;-1.00;0.03;51;-578;-8693
53665;0.00;0.05;-1.00;0.03;68;-576;-8698
53684;0.00;0.05;-1.00;0.03;75;-569;-8703
53704;0.00;0.05;-1.00;0.03;69;-563;-8688
53728;0.00;0.05;-1.00;0.03;57;-570;-8666
53754;0.01;0.05;-1.00;0.02;99;-321;-8723
53774;0.01;0.05;-1.00;0.02;102;-314;-8718
53793;0.01;0.05;-1.00;0.02;100;-303;-8710
53814;0.01;0.05;-1.00;0.02;93;-300;-8694
53833;0.01;0.05;-1.00;0.02;86;-299;-8677
53854;0.01;0.05;-1.00;0.01;86;-283;-8686
53873;0.01;0.05;-1.00;0.01;101;-266;-8697
53894;0.01;0.05;-1.00;0.01;104;-261;-8695
53913;0.01;0.05;-1.00;0.01;119;-270;-8694
53934;0.01;0.05;-1.00;0.01;131;-274;-8680
53953;0.01;0.05;-1.00;0.01;131;-276;-8676
53976;0.01;0.05;-1.00;0.01;133;-262;-8693
53997;0.01;0.05;-1.00;0.01;132;-243;-8720
54018;0.01;0.05;-1.00;0.01;130;-217;-8745
54036;0.01;0.05;-1.00;0.01;130;-202;-8758
54056;0.01;0.05;-1.00;0.01;125;-210;-8737
55083;0.01;0.05;-1.00;0.01;114;-144;-8709
55102;0.01;0.05;-1.00;0.01;113;-141;-8707
55121;0.01;0.05;-1.00;0.01;112;-141;-8710
55141;0.01;0.05;-1.00;0.01;114;-142;-8703
55163;0.01;0.05;-1.00;0.01;115;-148;-8698
55182;0.01;0.05;-1.00;0.01;116;-147;-8687
55201;0.01;0.05;-1.00;0.01;115;-145;-8683
55225;0.01;0.05;-1.00;0.01;113;-144;-8684
55253;0.01;0.05;-1.00;0.01;109;-144;-8707
55271;0.01;0.05;-1.00;0.01;109;-142;-8706
55291;0.01;0.05;-1.00;0.01;113;-141;-8701
55312;0.01;0.05;-1.00;0.01;111;-141;-8696
55333;0.01;0.05;-1.00;0.01;109;-142;-8689
55351;0.01;0.05;-1.00;0.01;107;-141;-8689
55370;0.01;0.05;-1.00;0.01;112;-142;-8693
55392;0.01;0.05;-1.00;0.01;109;-141;-8695
55412;0.01;0.05;-1.00;0.01;109;-142;-8700
55431;0.01;0.05;-1.00;0.01;108;-142;-8700
55450;0.01;0.05;-1.00;0.01;108;-138;-8695
55476;0.01;0.05;-1.00;0.01;102;-137;-8697
55496;0.01;0.05;-1.00;0.01;99;-141;-8699
55517;0.01;0.05;-1.00;0.01;105;-144;-8703
55539;0.01;0.05;-1.00;0.01;110;-142;-8702
55559;0.01;0.05;-1.00;0.01;107;-141;-8698
55580;0.01;0.05;-1.00;0.01;100;-136;-8695
55599;0.01;0.05;-1.00;0.01;103;-134;-8693
55617;0.01;0.05;-1.00;0.01;107;-138;-8692
55639;0.01;0.05;-1.00;0.01;111;-138;-8697
55660;0.01;0.05;-1.00;0.01;113;-141;-8701
55679;0.01;0.05;-1.00;0.01;115;-144;-8699
55697;0.01;0.05;-1.00;0.01;113;-146;-8699
55733;0.01;0.05;-1.00;0.01;105;-146;-8691
55752;0.01;0.05;-1.00;0.01;106;-146;-8690
55771;0.01;0.05;-1.00;0.01;110;-145;-8693
55791;0.01;0.05;-1.00;0.01;107;-141;-8695
55812;0.01;0.05;-1.00;0.01;110;-138;-8699
55832;0.01;0.05;-1.00;0.01;112;-137;-8703
55851;0.01;0.05;-1.00;0.01;111;-139;-8697
55870;0.01;0.05;-1.00;0.01;110;-141;-8700
55892;0.01;0.05;-1.00;0.01;110;-140;-8700
55911;0.01;0.05;-1.00;0.01;110;-141;-8702
55931;0.01;0.05;-1.00;0.01;109;-143;-8701
55950;0.01;0.05;-1.00;0.01;110;-144;-8706
55975;0.01;0.05;-1.00;0.01;109;-145;-8700
55994;0.01;0.05;-1.00;0.01;103;-148;-8696
56013;0.01;0.05;-1.00;0.01;104;-147;-8699
56034;0.01;0.05;-1.00;0.01;104;-145;-8701
56053;0.01;0.05;-1.00;0.01;108;-148;-8703
56074;0.01;0.05;-1.00;0.01;108;-148;-8702
56093;0.01;0.05;-1.00;0.01;108;-147;-8707
56114;0.01;0.05;-1.00;0.01;108;-145;-8712
56133;0.01;0.05;-1.00;0.01;104;-144;-8705
56153;0.01;0.05;-1.00;0.01;100;-142;-8702
56173;0.01;0.05;-1.00;0.01;99;-145;-8699
56193;0.01;0.05;-1.00;0.01;100;-142;-8694
56222;0.01;0.05;-1.00;0.01;110;-141;-8705
56243;0.01;0.05;-1.00;0.01;111;-140;-8702
56263;0.01;0.05;-1.00;0.01;111;-143;-8700
56282;0.01;0.05;-1.00;0.01;105;-148;-8699
56301;0.01;0.05;-1.00;0.01;107;-147;-8699
56323;0.01;0.05;-1.00;0.01;108;-147;-8694
56342;0.01;0.05;-1.00;0.01;107;-144;-8686
56362;0.01;0.05;-1.00;0.01;107;-143;-8687
56381;0.01;0.05;-1.00;0.01;101;-147;-8692
56403;0.01;0.05;-1.00;0.01;104;-146;-8690
56422;0.01;0.05;-1.00;0.01;107;-139;-8689
56440;0.01;0.05;-1.00;0.01;106;-137;-8690
56465;0.01;0.05;-1.00;0.01;103;-138;-8694
56487;0.01;0.05;-1.00;0.01;105;-138;-8690
56505;0.01;0.05;-1.00;0.01;105;-141;-8690
56523;0.01;0.05;-1.00;0.01;105;-144;-8690
56545;0.01;0.05;-1.00;0.01;104;-144;-8692
56565;0.01;0.05;-1.00;0.01;102;-145;-8690
56584;0.01;0.05;-1.00;0.01;103;-145;-8691
56603;0.01;0.05;-1.00;0.01;107;-142;-8697
56625;0.01;0.05;-1.00;0.01;107;-142;-8699
56645;0.01;0.05;-1.00;0.01;109;-141;-8708
56664;0.01;0.05;-1.00;0.01;105;-141;-8712
56682;0.01;0.05;-1.00;0.01;104;-144;-8704
56712;0.01;0.05;-1.00;0.01;109;-141;-8696
56731;0.01;0.05;-1.00;0.01;112;-141;-8695
56751;0.01;0.05;-1.00;0.01;115;-141;-8696
56770;0.01;0.05;-1.00;0.01;114;-137;-8697
56792;0.01;0.05;-1.00;0.01;113;-136;-8699
56811;0.01;0.05;-1.00;0.01;107;-145;-8700
56830;0.01;0.05;-1.00;0.01;105;-147;-8703
56850;0.01;0.05;-1.00;0.01;107;-145;-8703
56872;0.01;0.05;-1.00;0.01;114;-142;-8698
56891;0.01;0.05;-1.00;0.01;115;-139;-8696
56909;0.01;0.05;-1.00;0.01;113;-139;-8697
56930;0.01;0.05;-1.00;0.01;111;-138;-8699
56948;0.01;0.05;-1.00;0.01;113;-139;-8699
56969;0.01;0.05;-1.00;0.01;115;-137;-8705
56988;0.01;0.05;-1.00;0.01;109;-141;-8704
57010;0.01;0.05;-1.00;0.01;107;-139;-8700
57037;0.01;0.05;-1.00;0.01;106;-141;-8704
57056;0.01;0.05;-1.00;0.01;105;-139;-8700
57074;0.01;0.05;-1.00;0.01;105;-141;-8696
57095;0.01;0.05;-1.00;0.01;110;-142;-8699
57115;0.01;0.05;-1.00;0.01;112;-144;-8700
57136;0.01;0.05;-1.00;0.01;114;-147;-8695
57154;0.01;0.05;-1.00;0.01;116;-149;-8699
57178;0.01;0.05;-1.00;0.01;113;-146;-8707
57201;0.01;0.05;-1.00;0.01;114;-144;-8697
57222;0.01;0.05;-1.00;0.01;115;-142;-8691
57241;0.01;0.05;-1.00;0.01;109;-141;-8692
57262;0.01;0.05;-1.00;0.01;112;-140;-8692
57281;0.01;0.05;-1.00;0.01;110;-143;-8698
57302;0.01;0.05;-1.00;0.01;110;-145;-8700
57321;0.01;0.05;-1.00;0.01;111;-142;-8702
57342;0.01;0.05;-1.00;0.01;110;-147;-8698
57361;0.01;0.05;-1.00;0.01;110;-147;-8695
57382;0.01;0.05;-1.00;0.01;109;-144;-8694
57401;0.01;0.05;-1.00;0.01;111;-146;-8698
57424;0.01;0.05;-1.00;0.01;113;-145;-8701
57444;0.01;0.05;-1.00;0.01;111;-147;-8698
57466;0.01;0.05;-1.00;0.01;108;-146;-8687
57485;0.01;0.05;-1.00;0.01;108;-144;-8685
57503;0.01;0.05;-1.00;0.01;108;-146;-8680
57524;0.01;0.05;-1.00;0.01;106;-146;-8684
57545;0.01;0.05;-1.00;0.01;108;-145;-8685
57565;0.01;0.05;-1.00;0.01;108;-142;-8692
57583;0.01;0.05;-1.00;0.01;110;-138;-8704
57604;0.01;0.05;-1.00;0.01;111;-138;-8707
57624;0.01;0.05;-1.00;0.01;113;-138;-8701
57645;0.01;0.05;-1.00;0.01;115;-136;-8694
57666;0.01;0.05;-1.00;0.01;112;-136;-8700
57692;0.01;0.05;-1.00;0.01;107;-136;-8700
57712;0.01;0.05;-1.00;0.01;108;-133;-8699
57732;0.01;0.05;-1.00;0.01;104;-139;-8700
57750;0.01;0.05;-1.00;0.01;104;-138;-8691
57772;0.01;0.05;-1.00;0.01;104;-139;-8693
57792;0.01;0.05;-1.00;0.01;110;-138;-8698
57813;0.01;0.05;-1.00;0.01;110;-136;-8695
57832;0.01;0.05;-1.00;0.01;111;-141;-8694
57859;0.01;0.05;-1.00;0.01;111;-138;-8695
57878;0.01;0.05;-1.00;0.01;109;-140;-8698
57897;0.01;0.05;-1.00;0.01;110;-141;-8696
57920;0.01;0.05;-1.00;0.01;106;-142;-8698
57942;0.01;0.05;-1.00;0.01;107;-145;-8704
57961;0.01;0.05;-1.00;0.01;106;-142;-8708
57980;0.01;0.05;-1.00;0.01;113;-144;-8703
58000;0.01;0.05;-1.00;0.01;111;-145;-8698
58022;0.01;0.05;-1.00;0.01;111;-145;-8696
58041;0.01;0.05;-1.00;0.01;112;-145;-8696
58060;0.01;0.05;-1.00;0.01;110;-145;-8698
58080;0.01;0.05;-1.00;0.01;113;-147;-8704
58101;0.01;0.05;-1.00;0.01;114;-146;-8698
58122;0.01;0.05;-1.00;0.01;110;-142;-8690
58140;0.01;0.05;-1.00;0.01;110;-144;-8691
58171;0.01;0.05;-1.00;0.01;113;-144;-8696
58192;0.01;0.05;-1.00;0.01;111;-147;-8693
58212;0.01;0.05;-1.00;0.01;112;-147;-8696
58231;0.01;0.05;-1.00;0.01;113;-148;-8700
58252;0.01;0.05;-1.00;0.01;111;-150;-8694
59281;0.01;0.05;-1.00;0.01;104;-138;-8691
59301;0.01;0.05;-1.00;0.01;104;-140;-8692
59321;0.01;0.05;-1.00;0.01;101;-139;-8691
59340;0.01;0.05;-1.00;0.01;105;-141;-8696
59361;0.01;0.05;-1.00;0.01;108;-143;-8687
59380;0.01;0.05;-1.00;0.01;109;-148;-8689
59401;0.01;0.05;-1.00;0.01;106;-144;-8688
59423;0.01;0.05;-1.00;0.01;106;-143;-8685
59444;0.01;0.05;-1.00;0.01;106;-144;-8687
59465;0.01;0.05;-1.00;0.01;109;-143;-8684
59485;0.01;0.05;-1.00;0.01;104;-143;-8689
59504;0.01;0.05;-1.00;0.01;105;-143;-8685
59524;0.01;0.05;-1.00;0.01;101;-136;-8688
59545;0.01;0.05;-1.00;0.01;97;-138;-8688
59565;0.01;0.05;-1.00;0.01;95;-135;-8693
59584;0.01;0.05;-1.00;0.01;97;-140;-8691
59604;0.01;0.05;-1.00;0.01;105;-141;-8693
59625;0.01;0.05;-1.00;0.01;107;-142;-8692
59646;0.01;0.05;-1.00;0.01;109;-143;-8693
59671;0.01;0.05;-1.00;0.01;104;-147;-8687
59693;0.01;0.05;-1.00;0.01;106;-145;-8684
59713;0.01;0.05;-1.00;0.01;106;-143;-8687
59733;0.01;0.05;-1.00;0.01;111;-144;-8684
59751;0.01;0.05;-1.00;0.01;113;-145;-8690
59773;0.01;0.05;-1.00;0.01;110;-141;-8700
59793;0.01;0.05;-1.00;0.01;112;-142;-8700
59813;0.01;0.05;-1.00;0.01;116;-142;-8698
59831;0.01;0.05;-1.00;0.01;120;-145;-8706
59852;0.01;0.05;-1.00;0.01;113;-147;-8698
59874;0.01;0.05;-1.00;0.01;112;-144;-8700
59892;0.01;0.05;-1.00;0.01;114;-146;-8701
59915;0.01;0.05;-1.00;0.01;113;-143;-8695
59936;0.01;0.05;-1.00;0.01;110;-142;-8684
59957;0.01;0.05;-1.00;0.01;113;-142;-8685
59975;0.01;0.05;-1.00;0.01;111;-144;-8694
59996;0.01;0.05;-1.00;0.01;111;-145;-8697
60016;0.01;0.05;-1.00;0.01;115;-144;-8693
60037;0.01;0.05;-1.00;0.01;113;-145;-8691
60055;0.01;0.05;-1.00;0.01;112;-141;-8695
60076;0.01;0.05;-1.00;0.01;111;-142;-8700
60097;0.01;0.05;-1.00;0.01;110;-144;-8706
60117;0.01;0.05;-1.00;0.01;105;-140;-8706
60135;0.01;0.05;-1.00;0.01;108;-141;-8702
60171;0.01;0.05;-1.00;0.01;107;-148;-8702
60191;0.01;0.05;-1.00;0.01;108;-144;-8705
60211;0.01;0.05;-1.00;0.01;105;-145;-8709
60231;0.01;0.05;-1.00;0.01;110;-147;-8707
60251;0.01;0.05;-1.00;0.01;111;-145;-8705
60271;0.01;0.05;-1.00;0.01;108;-144;-8709
60291;0.01;0.05;-1.00;0.01;111;-145;-8712
60311;0.01;0.05;-1.00;0.01;112;-148;-8706
60331;0.01;0.05;-1.00;0.01;108;-151;-8702
60351;0.01;0.05;-1.00;0.01;105;-148;-8700
60372;0.01;0.05;-1.00;0.01;105;-151;-8706
60391;0.01;0.05;-1.00;0.01;114;-153;-8701
60414;0.01;0.05;-1.00;0.01;118;-148;-8702
60434;0.01;0.05;-1.00;0.01;121;-150;-8699
60456;0.01;0.05;-1.00;0.01;117;-148;-8695
60477;0.01;0.05;-1.00;0.01;117;-147;-8685
60497;0.01;0.05;-1.00;0.01;115;-143;-8689
60521;0.01;0.05;-1.00;0.01;113;-143;-8692
60541;0.01;0.05;-1.00;0.01;113;-140;-8689
60561;0.01;0.05;-1.00;0.01;111;-144;-8695
60579;0.01;0.05;-1.00;0.01;107;-141;-8701
60599;0.01;0.05;-1.00;0.01;106;-138;-8704
60620;0.01;0.05;-1.00;0.01;102;-138;-8705
60650;0.01;0.05;-1.00;0.01;100;-147;-8703
60672;0.01;0.05;-1.00;0.01;101;-145;-8703
60693;0.01;0.05;-1.00;0.01;105;-147;-8702
60715;0.01;0.05;-1.00;0.01;107;-144;-8700
60733;0.01;0.05;-1.00;0.01;107;-145;-8693
60752;0.01;0.05;-1.00;0.01;102;-148;-8691
60773;0.01;0.05;-1.00;0.01;103;-148;-8697
60792;0.01;0.05;-1.00;0.01;104;-147;-8695
60811;0.01;0.05;-1.00;0.01;104;-147;-8698
60831;0.01;0.05;-1.00;0.01;109;-144;-8693
60852;0.01;0.05;-1.00;0.01;108;-145;-8691
60872;0.01;0.05;-1.00;0.01;111;-144;-8694
60895;0.01;0.05;-1.00;0.01;107;-145;-8696
60914;0.01;0.05;-1.00;0.01;107;-146;-8698
60935;0.01;0.05;-1.00;0.01;108;-143;-8701
60954;0.01;0.05;-1.00;0.01;109;-142;-8698
60975;0.01;0.05;-1.00;0.01;111;-145;-8695
60994;0.01;0.05;-1.00;0.01;114;-144;-8694
61015;0.01;0.05;-1.00;0.01;111;-143;-8691
61034;0.01;0.05;-1.00;0.01;107;-146;-8690
61055;0.01;0.05;-1.00;0.01;107;-144;-8687
61074;0.01;0.05;-1.00;0.01;105;-139;-8689
61096;0.01;0.05;-1.00;0.01;104;-139;-8695
61116;0.01;0.05;-1.00;0.01;98;-141;-8692
61150;0.01;0.05;-1.00;0.01;107;-139;-8691
61168;0.01;0.05;-1.00;0.01;106;-138;-8697
61189;0.01;0.05;-1.00;0.01;107;-138;-8698
61209;0.01;0.05;-1.00;0.01;106;-136;-8695
61230;0.01;0.05;-1.00;0.01;106;-137;-8695
61248;0.01;0.05;-1.00;0.01;109;-141;-8695
61268;0.01;0.05;-1.00;0.01;112;-143;-8697
61289;0.01;0.05;-1.00;0.01;113;-144;-8694
61310;0.01;0.05;-1.00;0.01;113;-140;-8694
61328;0.01;0.05;-1.00;0.01;112;-142;-8693
61347;0.01;0.05;-1.00;0.01;108;-145;-8696
61369;0.01;0.05;-1.00;0.01;108;-142;-8699
61392;0.01;0.05;-1.00;0.01;114;-140;-8695
61410;0.01;0.05;-1.00;0.01;114;-138;-8694
61431;0.01;0.05;-1.00;0.01;113;-139;-8686
61453;0.01;0.05;-1.00;0.01;110;-141;-8697
61471;0.01;0.05;-1.00;0.01;106;-141;-8698
61490;0.01;0.05;-1.00;0.01;110;-142;-8701
61511;0.01;0.05;-1.00;0.01;107;-143;-8695
61532;0.01;0.05;-1.00;0.01;107;-140;-8686
61551;0.01;0.05;-1.00;0.01;107;-140;-8684
61570;0.01;0.05;-1.00;0.01;103;-141;-8689
61591;0.01;0.05;-1.00;0.01;105;-139;-8691
61612;0.01;0.05;-1.00;0.01;103;-141;-8695
61650;0.01;0.05;-1.00;0.01;104;-141;-8703
61671;0.01;0.05;-1.00;0.01;105;-142;-8708
61691;0.01;0.05;-1.00;0.01;105;-141;-8703
61710;0.01;0.05;-1.00;0.01;107;-136;-8707
61728;0.01;0.05;-1.00;0.01;108;-138;-8708
61748;0.01;0.05;-1.00;0.01;107;-135;-8713
61769;0.01;0.05;-1.00;0.01;106;-134;-8712
61790;0.01;0.05;-1.00;0.01;104;-136;-8705
61808;0.01;0.05;-1.00;0.01;108;-136;-8700
61828;0.01;0.05;-1.00;0.01;111;-138;-8702
61849;0.01;0.05;-1.00;0.01;113;-132;-8701
61870;0.01;0.05;-1.00;0.01;114;-134;-8702
61892;0.01;0.05;-1.00;0.01;107;-132;-8703
61912;0.01;0.05;-1.00;0.01;108;-133;-8703
61932;0.01;0.05;-1.00;0.01;104;-135;-8701
61952;0.01;0.05;-1.00;0.01;106;-135;-8698
61972;0.01;0.05;-1.00;0.01;108;-137;-8698
61992;0.01;0.05;-1.00;0.01;111;-135;-8698
62012;0.01;0.05;-1.00;0.01;111;-137;-8695
62032;0.01;0.05;-1.00;0.01;115;-141;-8698
62052;0.01;0.05;-1.00;0.01;116;-137;-8698
62071;0.01;0.05;-1.00;0.01;114;-140;-8690
62092;0.01;0.05;-1.00;0.01;114;-141;-8701
62111;0.01;0.05;-1.00;0.01;115;-144;-8703
62139;0.01;0.05;-1.00;0.01;106;-135;-8700
62158;0.01;0.05;-1.00;0.01;106;-136;-8700
62178;0.01;0.05;-1.00;0.01;110;-139;-8700
62199;0.01;0.05;-1.00;0.01;111;-138;-8699
62219;0.01;0.05;-1.00;0.01;112;-141;-8701
62238;0.01;0.05;-1.00;0.01;109;-138;-8701
62258;0.01;0.05;-1.00;0.01;106;-137;-8693
62279;0.01;0.05;-1.00;0.01;102;-140;-8700
62299;0.01;0.05;-1.00;0.01;99;-145;-8697
62318;0.01;0.05;-1.00;0.01;96;-146;-8697
62338;0.01;0.05;-1.00;0.01;99;-145;-8699
62359;0.01;0.05;-1.00;0.01;99;-142;-8698
62382;0.01;0.05;-1.00;0.01;103;-144;-8696
62400;0.01;0.05;-1.00;0.01;101;-144;-8702
62422;0.01;0.05;-1.00;0.01;101;-145;-8706
62442;0.01;0.05;-1.00;0.01;100;-145;-8712
62462;0.01;0.05;-1.00;0.01;98;-140;-8711
63489;0.01;0.05;-1.00;0.01;107;-141;-8702
63510;0.01;0.05;-1.00;0.01;107;-143;-8704
63532;0.01;0.05;-1.00;0.01;110;-142;-8700
63550;0.01;0.05;-1.00;0.01;110;-143;-8698
63569;0.01;0.05;-1.00;0.01;109;-148;-8697
63590;0.01;0.05;-1.00;0.01;112;-148;-8700
63611;0.01;0.05;-1.00;0.01;113;-148;-8702
63638;0.01;0.05;-1.00;0.01;105;-152;-8704
63659;0.01;0.05;-1.00;0.01;106;-150;-8698
63680;0.01;0.05;-1.00;0.01;105;-149;-8698
63700;0.01;0.05;-1.00;0.01;107;-147;-8700
63718;0.01;0.05;-1.00;0.01;109;-149;-8689
63739;0.01;0.05;-1.00;0.01;110;-153;-8687
63760;0.01;0.05;-1.00;0.01;112;-154;-8688
63779;0.01;0.05;-1.00;0.01;109;-151;-8688
63799;0.01;0.05;-1.00;0.01;110;-147;-8689
63818;0.01;0.05;-1.00;0.01;109;-147;-8689
63840;0.01;0.05;-1.00;0.01;114;-150;-8688
63859;0.01;0.05;-1.00;0.01;117;-149;-8687
63884;0.01;0.05;-1.00;0.01;114;-146;-8693
63905;0.01;0.05;-1.00;0.01;110;-145;-8699
63930;0.01;0.05;-1.00;0.01;108;-144;-8702
63948;0.01;0.05;-1.00;0.01;107;-145;-8698
63969;0.01;0.05;-1.00;0.01;105;-143;-8698
63988;0.01;0.05;-1.00;0.01;105;-144;-8701
64009;0.01;0.05;-1.00;0.01;104;-143;-8700
64028;0.01;0.05;-1.00;0.01;108;-144;-8697
64049;0.01;0.05;-1.00;0.01;106;-145;-8694
64068;0.01;0.05;-1.00;0.01;108;-144;-8696
64089;0.01;0.05;-1.00;0.01;110;-143;-8700
64118;0.01;0.05;-1.00;0.01;111;-136;-8685
64143;0.01;0.05;-1.00;0.01;111;-141;-8685
64161;0.01;0.05;-1.00;0.01;113;-139;-8682
64182;0.01;0.05;-1.00;0.01;116;-137;-8683
64203;0.01;0.05;-1.00;0.01;114;-139;-8687
64223;0.01;0.05;-1.00;0.01;113;-137;-8688
64241;0.01;0.05;-1.00;0.01;115;-136;-8689
64262;0.01;0.05;-1.00;0.01;112;-136;-8695
64283;0.01;0.05;-1.00;0.01;114;-137;-8695
64303;0.01;0.05;-1.00;0.01;113;-139;-8695
64321;0.01;0.05;-1.00;0.01;107;-136;-8701
64342;0.01;0.05;-1.00;0.01;109;-139;-8701
64363;0.01;0.05;-1.00;0.01;114;-143;-8692
64387;0.01;0.05;-1.00;0.01;117;-143;-8696
64407;0.01;0.05;-1.00;0.01;116;-141;-8696
64437;0.01;0.05;-1.00;0.01;113;-144;-8698
64456;0.01;0.05;-1.00;0.01;116;-140;-8700
64476;0.01;0.05;-1.00;0.01;117;-137;-8707
64494;0.01;0.05;-1.00;0.01;115;-137;-8704
64516;0.01;0.05;-1.00;0.01;114;-136;-8707
64536;0.01;0.05;-1.00;0.01;110;-138;-8704
64556;0.01;0.05;-1.00;0.01;108;-137;-8703
64574;0.01;0.05;-1.00;0.01;108;-138;-8706
64599;0.01;0.05;-1.00;0.01;105;-151;-8705
64619;0.01;0.05;-1.00;0.01;105;-150;-8700
64641;0.01;0.05;-1.00;0.01;103;-147;-8701
64661;0.01;0.05;-1.00;0.01;104;-147;-8694
64683;0.01;0.05;-1.00;0.01;106;-147;-8691
64702;0.01;0.05;-1.00;0.01;104;-148;-8690
64721;0.01;0.05;-1.00;0.01;108;-145;-8691
64741;0.01;0.05;-1.00;0.01;104;-144;-8690
64763;0.01;0.05;-1.00;0.01;101;-144;-8691
64782;0.01;0.05;-1.00;0.01;103;-145;-8697
64800;0.01;0.05;-1.00;0.01;101;-144;-8701
64821;0.01;0.05;-1.00;0.01;101;-144;-8700
64842;0.01;0.05;-1.00;0.01;106;-142;-8694
64865;0.01;0.05;-1.00;0.01;107;-144;-8700
64885;0.01;0.05;-1.00;0.01;110;-144;-8696
64905;0.01;0.05;-1.00;0.01;107;-148;-8695
64925;0.01;0.05;-1.00;0.01;110;-146;-8695
64945;0.01;0.05;-1.00;0.01;106;-144;-8690
64965;0.01;0.05;-1.00;0.01;107;-144;-8688
64985;0.01;0.05;-1.00;0.01;110;-144;-8690
65005;0.01;0.05;-1.00;0.01;115;-143;-8698
65025;0.01;0.05;-1.00;0.01;114;-138;-8693
65045;0.01;0.05;-1.00;0.01;113;-136;-8699
65066;0.01;0.05;-1.00;0.01;114;-140;-8697
65088;0.01;0.05;-1.00;0.01;107;-138;-8696
65113;0.01;0.05;-1.00;0.01;106;-134;-8701
65133;0.01;0.05;-1.00;0.01;107;-137;-8707
65152;0.01;0.05;-1.00;0.01;110;-138;-8704
65171;0.01;0.05;-1.00;0.01;112;-136;-8699
65193;0.01;0.05;-1.00;0.01;110;-138;-8703
65213;0.01;0.05;-1.00;0.01;110;-140;-8698
65232;0.01;0.05;-1.00;0.01;113;-141;-8701
65252;0.01;0.05;-1.00;0.01;112;-140;-8697
65274;0.01;0.05;-1.00;0.01;106;-141;-8695
65293;0.01;0.05;-1.00;0.01;110;-141;-8692
65311;0.01;0.05;-1.00;0.01;107;-145;-8692
65332;0.01;0.05;-1.00;0.01;104;-144;-8700
65357;0.01;0.05;-1.00;0.01;106;-141;-8701
65376;0.01;0.05;-1.00;0.01;107;-141;-8701
65394;0.01;0.05;-1.00;0.01;107;-147;-8704
65416;0.01;0.05;-1.00;0.01;110;-142;-8708
65437;0.01;0.05;-1.00;0.01;110;-135;-8703
65456;0.01;0.05;-1.00;0.01;105;-137;-8705
65474;0.01;0.05;-1.00;0.01;107;-139;-8700
65496;0.01;0.05;-1.00;0.01;109;-137;-8699
65516;0.01;0.05;-1.00;0.01;111;-139;-8696
65536;0.01;0.05;-1.00;0.01;108;-141;-8703
65554;0.01;0.05;-1.00;0.01;107;-140;-8701
65579;0.01;0.05;-1.00;0.01;117;-141;-8715
65602;0.01;0.05;-1.00;0.01;113;-146;-8707
65621;0.01;0.05;-1.00;0.01;115;-145;-8694
65640;0.01;0.05;-1.00;0.01;117;-145;-8693
65662;0.01;0.05;-1.00;0.01;115;-146;-8698
65681;0.01;0.05;-1.00;0.01;109;-148;-8698
65701;0.01;0.05;-1.00;0.01;106;-147;-8692
65720;0.01;0.05;-1.00;0.01;107;-147;-8692
65741;0.01;0.05;-1.00;0.01;107;-148;-8694
65761;0.01;0.05;-1.00;0.01;113;-141;-8695
65779;0.01;0.05;-1.00;0.01;108;-140;-8692
65800;0.01;0.05;-1.00;0.01;108;-140;-8689
65820;0.01;0.05;-1.00;0.01;107;-141;-8687
65843;0.01;0.05;-1.00;0.01;102;-141;-8686
65863;0.01;0.05;-1.00;0.01;99;-140;-8689
65883;0.01;0.05;-1.00;0.01;102;-141;-8686
65903;0.01;0.05;-1.00;0.01;101;-144;-8684
65923;0.01;0.05;-1.00;0.01;102;-142;-8686
65943;0.01;0.05;-1.00;0.01;100;-141;-8690
65963;0.01;0.05;-1.00;0.01;101;-136;-8695
65983;0.01;0.05;-1.00;0.01;101;-136;-8696
66003;0.01;0.05;-1.00;0.01;101;-137;-8705
66023;0.01;0.05;-1.00;0.01;105;-136;-8704
66043;0.01;0.05;-1.00;0.01;103;-137;-8701
66068;0.01;0.05;-1.00;0.01;109;-144;-8697
66093;0.01;0.05;-1.00;0.01;114;-149;-8705
66112;0.01;0.05;-1.00;0.01;115;-151;-8705
66131;0.01;0.05;-1.00;0.01;111;-146;-8695
66151;0.01;0.05;-1.00;0.01;110;-140;-8699
66172;0.01;0.05;-1.00;0.01;105;-135;-8703
66192;0.01;0.05;-1.00;0.01;103;-132;-8700
66210;0.01;0.05;-1.00;0.01;103;-134;-8694
66231;0.01;0.05;-1.00;0.01;108;-135;-8692
66251;0.01;0.05;-1.00;0.01;112;-141;-8694
66272;0.01;0.05;-1.00;0.01;114;-144;-8698
66290;0.01;0.05;-1.00;0.01;115;-142;-8692
66310;0.01;0.05;-1.00;0.01;117;-143;-8690
66335;0.01;0.05;-1.00;0.01;115;-140;-8695
66355;0.01;0.05;-1.00;0.01;119;-140;-8692
66375;0.01;0.05;-1.00;0.01;114;-145;-8692
66401;0.01;0.05;-1.00;0.01;111;-143;-8693
66420;0.01;0.05;-1.00;0.01;114;-139;-8695
66440;0.01;0.05;-1.00;0.01;115;-141;-8698
66458;0.01;0.05;-1.00;0.01;114;-146;-8702
66480;0.01;0.05;-1.00;0.01;112;-146;-8703
66500;0.01;0.05;-1.00;0.01;113;-147;-8702
66519;0.01;0.05;-1.00;0.01;115;-142;-8693
66547;0.01;0.05;-1.00;0.01;106;-143;-8694
66570;0.01;0.05;-1.00;0.01;106;-140;-8691
66593;0.01;0.05;-1.00;0.01;104;-141;-8692
66612;0.01;0.05;-1.00;0.01;105;-141;-8690
66632;0.01;0.05;-1.00;0.01;105;-142;-8695
66653;0.01;0.05;-1.00;0.01;111;-139;-8698
66674;0.01;0.05;-1.00;0.01;111;-138;-8698
67697;0.01;0.05;-1.00;0.01;107;-138;-8707
67727;0.01;0.05;-1.00;0.01;105;-140;-8708
67746;0.01;0.05;-1.00;0.01;104;-140;-8706
67766;0.01;0.05;-1.00;0.01;103;-139;-8703
67786;0.01;0.05;-1.00;0.01;107;-136;-8703
67806;0.01;0.05;-1.00;0.01;106;-139;-8700
67826;0.01;0.05;-1.00;0.01;111;-139;-8703
67850;0.01;0.05;-1.00;0.01;117;-135;-8700
67870;0.01;0.05;-1.00;0.01;116;-137;-8696
67889;0.01;0.05;-1.00;0.01;111;-138;-8694
67909;0.01;0.05;-1.00;0.01;108;-141;-8695
67930;0.01;0.05;-1.00;0.01;104;-142;-8690
67950;0.01;0.05;-1.00;0.01;104;-141;-8692
67969;0.01;0.05;-1.00;0.01;108;-141;-8682
67989;0.01;0.05;-1.00;0.01;109;-138;-8681
68010;0.01;0.05;-1.00;0.01;108;-139;-8684
68037;0.01;0.05;-1.00;0.01;109;-147;-8701
68056;0.01;0.05;-1.00;0.01;108;-146;-8704
68075;0.01;0.05;-1.00;0.01;107;-150;-8698
68101;0.01;0.05;-1.00;0.01;109;-149;-8702
68119;0.01;0.05;-1.00;0.01;114;-146;-8700
68138;0.01;0.05;-1.00;0.01;113;-143;-8700
68159;0.01;0.05;-1.00;0.01;113;-141;-8694
68181;0.01;0.05;-1.00;0.01;112;-143;-8696
68199;0.01;0.05;-1.00;0.01;112;-140;-8693
68218;0.01;0.05;-1.00;0.01;108;-143;-8696
68239;0.01;0.05;-1.00;0.01;109;-147;-8695
68261;0.01;0.05;-1.00;0.01;104;-148;-8699
68279;0.01;0.05;-1.00;0.01;104;-144;-8700
68297;0.01;0.05;-1.00;0.01;100;-143;-8709
68319;0.01;0.05;-1.00;0.01;101;-141;-8710
68342;0.01;0.05;-1.00;0.01;101;-140;-8708
68361;0.01;0.05;-1.00;0.01;107;-143;-8705
68381;0.01;0.05;-1.00;0.01;108;-145;-8704
68403;0.01;0.05;-1.00;0.01;108;-140;-8701
68422;0.01;0.05;-1.00;0.01;106;-146;-8698
68441;0.01;0.05;-1.00;0.01;107;-142;-8699
68461;0.01;0.05;-1.00;0.01;106;-140;-8700
68482;0.01;0.05;-1.00;0.01;107;-139;-8696
68502;0.01;0.05;-1.00;0.01;106;-137;-8685
68527;0.01;0.05;-1.00;0.01;123;-142;-8688
68547;0.01;0.05;-1.00;0.01;121;-149;-8686
68571;0.01;0.05;-1.00;0.01;120;-149;-8686
68590;0.01;0.05;-1.00;0.01;118;-149;-8694
68611;0.01;0.05;-1.00;0.01;117;-148;-8697
68630;0.01;0.05;-1.00;0.01;118;-149;-8700
68651;0.01;0.05;-1.00;0.01;114;-144;-8697
68670;0.01;0.05;-1.00;0.01;113;-147;-8687
68691;0.01;0.05;-1.00;0.01;112;-147;-8684
68710;0.01;0.05;-1.00;0.01;109;-144;-8682
68731;0.01;0.05;-1.00;0.01;112;-143;-8687
68751;0.01;0.05;-1.00;0.01;114;-140;-8691
68770;0.01;0.05;-1.00;0.01;114;-142;-8691
68791;0.01;0.05;-1.00;0.01;108;-143;-8691
68813;0.01;0.05;-1.00;0.01;108;-142;-8686
68835;0.01;0.05;-1.00;0.01;105;-145;-8689
68854;0.01;0.05;-1.00;0.01;102;-140;-8692
68873;0.01;0.05;-1.00;0.01;106;-141;-8696
68893;0.01;0.05;-1.00;0.01;106;-142;-8695
68915;0.01;0.05;-1.00;0.01;107;-140;-8696
68934;0.01;0.05;-1.00;0.01;109;-140;-8698
68954;0.01;0.05;-1.00;0.01;111;-144;-8697
68973;0.01;0.05;-1.00;0.01;109;-147;-8701
68995;0.01;0.05;-1.00;0.01;27645;-230;27136
69016;0.01;0.05;-1.00;0.01;111;-139;-8698
69036;0.00;0.05;-1.00;0.01;115;-149;-8684
69060;0.00;0.05;-1.00;0.01;130;-169;-8657
69081;0.00;0.05;-1.00;0.01;144;-190;-8628
69099;0.00;0.05;-1.00;0.00;150;-196;-8608
69119;0.00;0.05;-1.00;0.00;65;-86;-8716
69140;0.00;0.05;-1.00;-0.00;-6;27;-8725
69161;0.00;0.05;-1.00;0.00;-30;84;-8758
69179;0.00;0.05;-1.00;0.00;47;-59;-8691
69197;0.00;0.05;-1.00;0.00;43;-68;-8712
69219;0.00;0.05;-1.00;-0.00;27;-30;-8709
69240;-0.00;0.05;-1.00;-0.00;20;-26;-8707
69259;-0.00;0.05;-1.00;-0.00;33;-52;-8703
69278;-0.00;0.05;-1.00;-0.00;38;-89;-8727
69303;-0.00;0.05;-1.00;-0.01;-65;154;-8682
69323;-0.00;0.05;-1.00;-0.00;-13;14;-8711
69342;-0.00;0.05;-1.00;-0.01;-39;96;-8695
69362;-0.00;0.05;-1.00;-0.01;-27;54;-8712
69384;-0.00;0.05;-1.00;-0.01;-34;107;-8703
69403;-0.00;0.05;-1.00;-0.01;-23;70;-8721
69422;-0.00;0.05;-1.00;-0.01;-34;96;-8711
69442;-0.00;0.05;-1.00;-0.01;-30;82;-8708
