t;w;x;y;z;ax;ay;az
1053;-0.01;0.98;0.20;0.00;52;-123;-8768
1070;-0.01;0.98;0.20;0.00;51;-128;-8771
1087;-0.01;0.98;0.20;0.00;51;-131;-8773
1103;-0.01;0.98;0.20;0.00;49;-132;-8773
1122;-0.01;0.98;0.20;0.00;48;-128;-8774
1139;-0.01;0.98;0.20;0.00;51;-128;-8772
1155;-0.01;0.98;0.20;0.00;52;-131;-8763
1173;-0.01;0.98;0.20;0.00;54;-130;-8760
1191;-0.01;0.98;0.20;0.00;48;-128;-8765
1209;-0.01;0.98;0.20;0.00;45;-127;-8766
1225;-0.01;0.98;0.20;0.00;48;-128;-8767
1242;-0.01;0.98;0.20;0.00;46;-129;-8768
1261;-0.01;0.98;0.20;0.00;47;-128;-8766
1276;-0.01;0.98;0.20;0.00;49;-128;-8771
1292;-0.01;0.98;0.20;0.00;46;-132;-8768
1309;-0.01;0.98;0.20;0.00;47;-132;-8772
1328;-0.01;0.98;0.20;0.00;45;-131;-8777
1345;-0.01;0.98;0.20;0.00;48;-127;-8781
1361;-0.01;0.98;0.20;0.00;48;-127;-8776
1379;-0.01;0.98;0.20;0.00;49;-124;-8777
1398;-0.01;0.98;0.20;0.00;48;-124;-8778
1415;-0.01;0.98;0.20;0.00;53;-125;-8777
1431;-0.01;0.98;0.20;0.00;53;-125;-8775
1448;-0.01;0.98;0.20;0.00;49;-122;-8778
1467;-0.01;0.98;0.20;0.00;49;-119;-8780
1487;-0.01;0.98;0.20;0.00;49;-122;-8779
1504;-0.01;0.98;0.20;0.00;48;-123;-8773
1522;-0.01;0.98;0.20;0.00;52;-127;-8772
1540;-0.01;0.98;0.20;0.00;53;-130;-8776
1557;-0.01;0.98;0.20;0.00;58;-126;-8774
1572;-0.01;0.98;0.20;0.00;58;-131;-8772
1592;-0.01;0.98;0.20;0.00;19610;-31891;6488
1613;-0.01;0.98;0.20;0.00;55;-129;-8772
1629;-0.01;0.98;0.20;0.00;56;-131;-8771
1645;-0.01;0.98;0.20;0.00;54;-133;-8768
1664;-0.01;0.98;0.20;0.00;55;-133;-8767
1683;-0.01;0.98;0.20;0.00;58;-130;-8765
1701;-0.01;0.98;0.20;0.00;57;-130;-8763
1719;-0.01;0.98;0.20;0.00;56;-128;-8770
1737;-0.01;0.98;0.20;0.00;56;-129;-8771
1754;-0.01;0.98;0.20;0.00;54;-133;-8775
1771;-0.01;0.98;0.20;0.00;51;-131;-8772
1788;-0.01;0.98;0.20;0.00;47;-129;-8768
1807;-0.01;0.98;0.20;0.00;52;-128;-8763
1824;-0.01;0.98;0.20;0.00;55;-132;-8763
1840;-0.01;0.98;0.20;0.00;51;-130;-8762
1858;-0.01;0.98;0.20;0.00;55;-128;-8762
1876;-0.01;0.98;0.20;0.00;56;-125;-8762
1894;-0.01;0.98;0.20;0.00;57;-127;-8767
1909;-0.01;0.98;0.20;0.00;58;-128;-8768
1931;-0.01;0.98;0.20;0.00;58;-127;-8770
1949;-0.01;0.98;0.20;0.00;58;-127;-8765
1965;-0.01;0.98;0.20;0.00;55;-123;-8770
1984;-0.01;0.98;0.20;0.00;53;-125;-8778
2001;-0.01;0.98;0.20;0.00;45;-124;-8782
2019;-0.01;0.98;0.20;0.00;47;-123;-8781
2036;-0.01;0.98;0.20;0.00;49;-125;-8779
2053;-0.01;0.98;0.20;0.00;48;-123;-8782
2071;-0.01;0.98;0.20;0.00;45;-122;-8785
2088;-0.01;0.98;0.20;0.00;52;-122;-8782
2106;-0.01;0.98;0.20;0.00;56;-125;-8780
2123;-0.01;0.98;0.20;0.00;51;-131;-8776
2144;-0.01;0.98;0.20;0.00;49;-133;-8782
2161;-0.01;0.98;0.20;0.00;31758;26085;4499
2183;-0.01;0.98;0.20;0.00;44;-130;-8781
2200;-0.01;0.98;0.20;0.00;49;-131;-8780
2216;-0.01;0.98;0.20;0.00;46;-129;-8783
2234;-0.01;0.98;0.20;0.00;43;-129;-8781
2252;-0.01;0.98;0.20;0.00;41;-128;-8773
2270;-0.01;0.98;0.20;0.00;45;-130;-8775
2286;-0.01;0.98;0.20;0.00;52;-132;-8781
2303;-0.01;0.98;0.20;0.00;53;-134;-8777
2322;-0.01;0.98;0.20;0.00;51;-136;-8775
2339;-0.01;0.98;0.20;0.00;46;-135;-8776
2356;-0.01;0.98;0.20;0.00;48;-134;-8775
2377;-0.01;0.98;0.20;0.00;49;-135;-8764
2396;-0.01;0.98;0.20;0.00;49;-135;-8765
2412;-0.01;0.98;0.20;0.00;49;-132;-8772
2428;-0.01;0.98;0.20;0.00;52;-131;-8775
2448;-0.01;0.98;0.20;0.00;52;-129;-8782
2466;-0.01;0.98;0.20;0.00;47;-128;-8781
2482;-0.01;0.98;0.20;0.00;51;-128;-8773
2498;-0.01;0.98;0.20;0.00;52;-131;-8772
2517;-0.01;0.98;0.20;0.00;55;-130;-8776
2536;-0.01;0.98;0.20;0.00;60;-132;-8766
2552;-0.01;0.98;0.20;0.00;60;-133;-8761
2568;-0.01;0.98;0.20;0.00;57;-131;-8768
2591;-0.01;0.98;0.20;0.00;57;-128;-8776
2608;-0.01;0.98;0.20;0.00;55;-133;-8777
2625;-0.01;0.98;0.20;0.00;51;-140;-8770
2642;-0.01;0.98;0.20;0.00;51;-138;-8774
2661;-0.01;0.98;0.20;0.00;49;-138;-8770
2678;-0.01;0.98;0.20;0.00;53;-133;-8769
2695;-0.01;0.98;0.20;0.00;49;-130;-8767
2712;-0.01;0.98;0.20;0.00;50;-130;-8775
2730;-0.01;0.98;0.20;0.00;-136;-8773;-19862
2752;-0.01;0.98;0.20;0.00;46;-128;-8772
2768;-0.01;0.98;0.20;0.00;50;-129;-8770
2786;-0.01;0.98;0.20;0.00;44;-128;-8765
2805;-0.01;0.98;0.20;0.00;48;-125;-8762
2825;-0.01;0.98;0.20;0.00;54;-125;-8773
2843;-0.01;0.98;0.20;0.00;53;-128;-8769
2860;-0.01;0.98;0.20;0.00;50;-133;-8776
2878;-0.01;0.98;0.20;0.00;48;-131;-8777
2895;-0.01;0.98;0.20;0.00;47;-130;-8775
2913;-0.01;0.98;0.20;0.00;42;-133;-8775
2930;-0.01;0.98;0.20;0.00;45;-130;-8772
2948;-0.01;0.98;0.20;0.00;43;-131;-8764
2967;-0.01;0.98;0.20;0.00;44;-131;-8766
2996;-0.01;0.98;0.20;0.00;46;-135;-8764
3013;-0.01;0.98;0.20;0.00;50;-133;-8763
3044;-0.01;0.98;0.20;0.00;52;-127;-8764
3064;-0.01;0.98;0.20;0.00;49;-120;-8765
3082;-0.01;0.98;0.20;0.00;47;-123;-8763
3098;-0.01;0.98;0.20;0.00;51;-128;-8766
3115;-0.01;0.98;0.20;0.00;49;-130;-8765
3134;-0.01;0.98;0.20;0.00;50;-128;-8764
3151;-0.01;0.98;0.20;0.00;54;-126;-8764
3168;-0.01;0.98;0.20;0.00;59;-126;-8765
3185;-0.01;0.98;0.20;0.00;59;-128;-8773
3203;-0.01;0.98;0.20;0.00;58;-125;-8770
3221;-0.01;0.98;0.20;0.00;59;-122;-8771
3237;-0.01;0.98;0.20;0.00;59;-121;-8776
3255;-0.01;0.98;0.20;0.00;55;-122;-8779
3282;-0.01;0.98;0.20;0.00;55;-134;-8770
3303;-0.01;0.98;0.20;0.00;51;-136;-8772
3318;-0.01;0.98;0.20;0.00;50;-130;-8776
3338;-0.01;0.98;0.20;0.00;50;-130;-8775
3356;-0.01;0.98;0.20;0.00;52;-130;-8776
3372;-0.01;0.98;0.20;0.00;54;-128;-8776
3389;-0.01;0.98;0.20;0.00;51;-126;-8777
3407;-0.01;0.98;0.20;0.00;52;-129;-8770
3427;-0.01;0.98;0.20;0.00;53;-129;-8767
3442;-0.01;0.98;0.20;0.00;50;-130;-8769
3458;-0.01;0.98;0.20;0.00;50;-129;-8767
3478;-0.01;0.98;0.20;0.00;51;-132;-8767
3496;-0.01;0.98;0.20;0.00;53;-132;-8765
3515;-0.01;0.98;0.20;0.00;49;-135;-8763
3532;-0.01;0.98;0.20;0.00;49;-130;-8770
3552;-0.01;0.98;0.20;0.00;55;-129;-8773
3568;-0.01;0.98;0.20;0.00;58;-129;-8772
3584;-0.01;0.98;0.20;0.00;52;-131;-8777
3602;-0.01;0.98;0.20;0.00;48;-131;-8776
3621;-0.01;0.98;0.20;0.00;47;-131;-8777
3638;-0.01;0.98;0.20;0.00;42;-133;-8764
3654;-0.01;0.98;0.20;0.00;48;-132;-8766
3671;-0.01;0.98;0.20;0.00;45;-132;-8773
3691;-0.01;0.98;0.20;0.00;49;-130;-8772
3707;-0.01;0.98;0.20;0.00;46;-128;-8770
3724;-0.01;0.98;0.20;0.00;52;-129;-8776
3745;-0.01;0.98;0.20;0.00;52;-128;-8781
3763;-0.01;0.98;0.20;0.00;50;-128;-8779
3780;-0.01;0.98;0.20;0.00;51;-130;-8774
3797;-0.01;0.98;0.20;0.00;50;-128;-8771
3815;-0.01;0.98;0.20;0.00;50;-126;-8770
4852;-0.01;0.98;0.20;0.00;53;-126;-8770
4869;-0.01;0.98;0.20;0.00;50;-129;-8765
4887;-0.01;0.98;0.20;0.00;48;-127;-8770
4903;-0.01;0.98;0.20;0.00;47;-130;-8769
4922;-0.01;0.98;0.20;0.00;49;-131;-8768
4938;-0.01;0.98;0.20;0.00;52;-129;-8768
4956;-0.01;0.98;0.20;0.00;50;-125;-8770
4976;-0.01;0.98;0.20;0.00;50;-125;-8770
4993;-0.01;0.98;0.20;0.00;54;-125;-8769
5012;-0.01;0.98;0.20;0.00;54;-122;-8773
5029;-0.01;0.98;0.20;0.00;56;-125;-8768
5046;-0.01;0.98;0.20;0.00;55;-127;-8767
5063;-0.01;0.98;0.20;0.00;51;-133;-8768
5081;-0.01;0.98;0.20;0.00;51;-133;-8770
5099;-0.01;0.98;0.20;0.00;56;-134;-8771
5115;-0.01;0.98;0.20;0.00;55;-133;-8772
5133;-0.01;0.98;0.20;0.00;59;-135;-8775
5151;-0.01;0.98;0.20;0.00;57;-136;-8778
5168;-0.01;0.98;0.20;0.00;52;-133;-8782
5184;-0.01;0.98;0.20;0.00;55;-129;-8779
5206;-0.01;0.98;0.20;0.00;53;-127;-8776
5225;-0.01;0.98;0.20;0.00;52;-127;-8775
5240;-0.01;0.98;0.20;0.00;51;-133;-8785
5257;-0.01;0.98;0.20;0.00;48;-129;-8783
5276;-0.01;0.98;0.20;0.00;51;-128;-8781
5293;-0.01;0.98;0.20;0.00;51;-129;-8780
5310;-0.01;0.98;0.20;0.00;52;-130;-8785
5326;-0.01;0.98;0.20;0.00;53;-126;-8781
5345;-0.01;0.98;0.20;0.00;51;-127;-8779
5363;-0.01;0.98;0.20;0.00;48;-128;-8773
5379;-0.01;0.98;0.20;0.00;49;-131;-8770
5396;-0.01;0.98;0.20;0.00;52;-133;-8769
5421;-0.01;0.98;0.20;0.00;45;-133;-8779
5438;-0.01;0.98;0.20;0.00;43;-130;-8778
5454;-0.01;0.98;0.20;0.00;47;-126;-8780
5472;-0.01;0.98;0.20;0.00;47;-129;-8783
5490;-0.01;0.98;0.20;0.00;44;-126;-8776
5507;-0.01;0.98;0.20;0.00;44;-126;-8773
5524;-0.01;0.98;0.20;0.00;43;-125;-8768
5541;-0.01;0.98;0.20;0.00;43;-124;-8768
5560;-0.01;0.98;0.20;0.00;47;-123;-8768
5577;-0.01;0.98;0.20;0.00;54;-122;-8769
5593;-0.01;0.98;0.20;0.00;55;-123;-8771
5611;-0.01;0.98;0.20;0.00;56;-125;-8773
5629;-0.01;0.98;0.20;0.00;57;-122;-8770
5649;-0.01;0.98;0.20;0.00;61;-124;-8771
5667;-0.01;0.98;0.20;0.00;60;-127;-8777
5684;-0.01;0.98;0.20;0.00;58;-127;-8772
5701;-0.01;0.98;0.20;0.00;58;-127;-8774
5718;-0.01;0.98;0.20;0.00;57;-136;-8772
5736;-0.01;0.98;0.20;0.00;54;-134;-8768
5753;-0.01;0.98;0.20;0.00;54;-131;-8772
5771;-0.01;0.98;0.20;0.00;53;-131;-8773
5788;-0.01;0.98;0.20;0.00;54;-134;-8773
5805;-0.01;0.98;0.20;0.00;53;-134;-8778
5823;-0.01;0.98;0.20;0.00;54;-133;-8781
5840;-0.01;0.98;0.20;0.00;53;-132;-8776
5862;-0.01;0.98;0.20;0.00;52;-131;-8771
5879;-0.01;0.98;0.20;0.00;56;-131;-8768
5897;-0.01;0.98;0.20;0.00;53;-130;-8768
5915;-0.01;0.98;0.20;0.00;46;-129;-8770
5945;-0.01;0.98;0.20;0.00;45;-130;-8770
5971;-0.01;0.98;0.20;0.00;55;-130;-8771
5988;-0.01;0.98;0.20;0.00;57;-128;-8771
6005;-0.01;0.98;0.20;0.00;57;-126;-8772
6024;-0.01;0.98;0.20;0.00;55;-128;-8766
6041;-0.01;0.98;0.20;0.00;59;-131;-8770
6056;-0.01;0.98;0.20;0.00;59;-127;-8773
6075;-0.01;0.98;0.20;0.00;57;-123;-8768
6093;-0.01;0.98;0.20;0.00;56;-126;-8765
6115;-0.01;0.98;0.20;0.00;50;-127;-8770
6131;-0.01;0.98;0.20;0.00;47;-126;-8771
6163;-0.01;0.98;0.20;0.00;41;-127;-8774
6180;-0.01;0.98;0.20;0.00;40;-129;-8770
6197;-0.01;0.98;0.20;0.00;41;-130;-8767
6213;-0.01;0.98;0.20;0.00;43;-126;-8766
6231;-0.01;0.98;0.20;0.00;45;-127;-8772
6250;-0.01;0.98;0.20;0.00;48;-130;-8760
6266;-0.01;0.98;0.20;0.00;53;-130;-8752
6282;-0.01;0.98;0.20;0.00;48;-129;-8760
6301;-0.01;0.98;0.20;0.00;52;-128;-8764
6319;-0.01;0.98;0.20;0.00;49;-136;-8761
6338;-0.01;0.98;0.20;0.00;45;-136;-8758
6355;-0.01;0.98;0.20;0.00;46;-132;-8762
6374;-0.01;0.98;0.20;0.00;49;-133;-8771
6391;-0.01;0.98;0.20;0.00;49;-126;-8774
6408;-0.01;0.98;0.20;0.00;49;-126;-8774
6425;-0.01;0.98;0.20;0.00;50;-128;-8774
6443;-0.01;0.98;0.20;0.00;48;-130;-8774
6461;-0.01;0.98;0.20;0.00;44;-128;-8768
6477;-0.01;0.98;0.20;0.00;41;-129;-8769
6495;-0.01;0.98;0.20;0.00;43;-126;-8766
6520;-0.01;0.98;0.20;0.00;45;-127;-8759
6538;-0.01;0.98;0.20;0.00;48;-129;-8770
6554;-0.01;0.98;0.20;0.00;50;-129;-8774
6569;-0.01;0.98;0.20;0.00;54;-127;-8777
6588;-0.01;0.98;0.20;0.00;54;-131;-8770
6605;-0.01;0.98;0.20;0.00;54;-130;-8759
6622;-0.01;0.98;0.20;0.00;57;-126;-8763
6639;-0.01;0.98;0.20;0.00;57;-125;-8768
6657;-0.01;0.98;0.20;0.00;56;-127;-8770
6675;-0.01;0.98;0.20;0.00;57;-130;-8767
6691;-0.01;0.98;0.20;0.00;55;-131;-8764
6709;-0.01;0.98;0.20;0.00;56;-129;-8770
6727;-0.01;0.98;0.20;0.00;56;-130;-8766
6744;-0.01;0.98;0.20;0.00;53;-128;-8764
6761;-0.01;0.98;0.20;0.00;55;-125;-8764
6782;-0.01;0.98;0.20;0.00;53;-127;-8766
6800;-0.01;0.98;0.20;0.00;50;-130;-8770
6817;-0.01;0.98;0.20;0.00;48;-130;-8768
6835;-0.01;0.98;0.20;0.00;50;-129;-8771
6852;-0.01;0.98;0.20;0.00;49;-127;-8765
6869;-0.01;0.98;0.20;0.00;47;-125;-8764
6887;-0.01;0.98;0.20;0.00;42;-122;-8764
6904;-0.01;0.98;0.20;0.00;47;-121;-8766
6922;-0.01;0.98;0.20;0.00;49;-121;-8770
6939;-0.01;0.98;0.20;0.00;49;-121;-8770
6956;-0.01;0.98;0.20;0.00;54;-123;-8768
6974;-0.01;0.98;0.20;0.00;53;-120;-8768
6994;-0.01;0.98;0.20;0.00;57;-118;-8765
7012;-0.01;0.98;0.20;0.00;51;-120;-8768
7030;-0.01;0.98;0.20;0.00;49;-125;-8767
7048;-0.01;0.98;0.20;0.00;51;-127;-8777
7064;-0.01;0.98;0.20;0.00;48;-127;-8778
7091;-0.01;0.98;0.20;0.00;55;-134;-8773
7109;-0.01;0.98;0.20;0.00;52;-135;-8771
7126;-0.01;0.98;0.20;0.00;52;-132;-8767
7143;-0.01;0.98;0.20;0.00;52;-133;-8757
7160;-0.01;0.98;0.20;0.00;53;-136;-8749
7179;-0.01;0.98;0.20;0.00;53;-129;-8758
7196;-0.01;0.98;0.20;0.00;51;-129;-8765
7212;-0.01;0.98;0.20;0.00;50;-135;-8767
7234;-0.01;0.98;0.20;0.00;45;-135;-8760
7252;-0.01;0.98;0.20;0.00;51;-135;-8766
7269;-0.01;0.98;0.20;0.00;49;-131;-8757
7285;-0.01;0.98;0.20;0.00;48;-133;-8760
7304;-0.01;0.98;0.20;0.00;48;-132;-8767
7322;-0.01;0.98;0.20;0.00;52;-136;-8773
7338;-0.01;0.98;0.20;0.00;52;-133;-8777
7355;-0.01;0.98;0.20;0.00;48;-130;-8780
7373;-0.01;0.98;0.20;0.00;43;-132;-8783
7392;-0.01;0.98;0.20;0.00;43;-132;-8781
7408;-0.01;0.98;0.20;0.00;48;-135;-8779
7424;-0.01;0.98;0.20;0.00;52;-138;-8782
7447;-0.01;0.98;0.20;0.00;55;-136;-8779
7464;-0.01;0.98;0.20;0.00;52;-137;-8776
7481;-0.01;0.98;0.20;0.00;49;-133;-8775
7498;-0.01;0.98;0.20;0.00;50;-135;-8772
7517;-0.01;0.98;0.20;0.00;50;-132;-8783
7534;-0.01;0.98;0.20;0.00;54;-130;-8779
7550;-0.01;0.98;0.20;0.00;52;-126;-8779
7568;-0.01;0.98;0.20;0.00;53;-120;-8785
7587;-0.01;0.98;0.20;0.00;54;-122;-8788
7605;-0.01;0.98;0.20;0.00;54;-129;-8788
7620;-0.01;0.98;0.20;0.00;51;-130;-8780
8640;-0.01;0.98;0.20;0.00;56;-126;-8775
8658;-0.01;0.98;0.00;0.83;4670;-28404;2048
8690;-0.01;0.98;0.20;0.00;47;-125;-8776
8707;-0.01;0.98;0.20;0.00;51;-125;-8771
8725;-0.01;0.98;0.20;0.00;53;-126;-8767
8742;-0.01;0.98;0.20;0.00;51;-127;-8765
8760;-0.01;0.98;0.20;0.00;52;-125;-8763
8777;-0.01;0.98;0.20;0.00;52;-127;-8754
8794;-0.01;0.98;0.20;0.00;52;-131;-8757
8812;-0.01;0.98;0.20;0.00;53;-133;-8758
8829;-0.01;0.98;0.20;0.00;54;-135;-8765
8847;-0.01;0.98;0.20;0.00;48;-134;-8768
8864;-0.01;0.98;0.20;0.00;48;-135;-8771
8884;-0.01;0.98;0.20;0.00;55;-137;-8763
8917;-0.01;0.98;0.20;0.00;54;-134;-8760
8934;-0.01;0.98;0.20;0.00;53;-130;-8758
8950;-0.01;0.98;0.20;0.00;54;-131;-8757
8968;-0.01;0.98;0.20;0.00;58;-132;-8755
8986;-0.01;0.98;0.20;0.00;57;-130;-8769
9003;-0.01;0.98;0.20;0.00;58;-128;-8770
9020;-0.01;0.98;0.20;0.00;59;-129;-8777
9037;-0.01;0.98;0.20;0.00;64;-130;-8779
9057;-0.01;0.98;0.20;0.00;61;-127;-8776
9074;-0.01;0.98;0.20;0.00;54;-126;-8778
9089;-0.01;0.98;0.20;0.00;49;-129;-8772
9108;-0.01;0.98;0.20;0.00;47;-131;-8772
9126;-0.01;0.98;0.20;0.00;48;-130;-8771
9147;-0.01;0.98;0.20;0.00;46;-123;-8769
9162;-0.01;0.98;0.20;0.00;52;-122;-8773
9182;-0.01;0.98;0.20;0.00;56;-120;-8774
9200;-0.01;0.98;0.20;0.00;55;-129;-8771
9217;-0.01;0.98;0.20;0.00;50;-127;-8772
9239;-0.01;0.98;0.20;0.00;59;-131;-8764
9271;-0.01;0.98;0.20;0.00;49;-130;-8773
9288;-0.01;0.98;0.20;0.00;48;-129;-8778
9304;-0.01;0.98;0.20;0.00;53;-130;-8782
9321;-0.01;0.98;0.20;0.00;55;-127;-8779
9339;-0.01;0.98;0.20;0.00;53;-127;-8779
9358;-0.01;0.98;0.20;0.00;54;-128;-8778
9377;-0.01;0.98;0.20;0.00;57;-128;-8772
9395;-0.01;0.98;0.20;0.00;56;-126;-8771
9413;-0.01;0.98;0.20;0.00;53;-128;-8769
9430;-0.01;0.98;0.20;0.00;49;-127;-8765
9446;-0.01;0.98;0.20;0.00;53;-130;-8755
9463;-0.01;0.98;0.20;0.00;46;-129;-8758
9481;-0.01;0.98;0.20;0.00;47;-133;-8763
9498;-0.01;0.98;0.20;0.00;45;-136;-8763
9515;-0.01;0.98;0.20;0.00;43;-133;-8764
9533;-0.01;0.98;0.20;0.00;48;-133;-8768
9550;-0.01;0.98;0.20;0.00;50;-131;-8772
9568;-0.01;0.98;0.20;0.00;46;-131;-8769
9585;-0.01;0.98;0.20;0.00;50;-129;-8769
9604;-0.01;0.98;0.20;0.00;50;-128;-8770
9622;-0.01;0.98;0.20;0.00;49;-126;-8770
9641;-0.01;0.98;0.20;0.00;48;-127;-8769
9658;-0.01;0.98;0.20;0.00;48;-129;-8772
9674;-0.01;0.98;0.20;0.00;53;-129;-8776
9692;-0.01;0.98;0.20;0.00;51;-130;-8778
9710;-0.01;0.98;0.20;0.00;49;-130;-8776
9727;-0.01;0.98;0.20;0.00;49;-132;-8773
9744;-0.01;0.98;0.20;0.00;47;-133;-8775
9761;-0.01;0.98;0.20;0.00;50;-130;-8774
9790;-0.01;0.98;0.20;0.00;47;-127;-8764
9807;-0.01;0.98;0.20;0.00;47;-124;-8762
9826;-0.01;0.98;0.20;0.00;46;-123;-8760
9845;-0.01;0.98;0.20;0.00;44;-123;-8766
9863;-0.01;0.98;0.20;0.00;41;-123;-8767
9879;-0.01;0.98;0.20;0.00;37;-125;-8765
9895;-0.01;0.98;0.20;0.00;42;-123;-8763
9914;-0.01;0.98;0.20;0.00;43;-128;-8763
9932;-0.01;0.98;0.20;0.00;38;-130;-8763
9949;-0.01;0.98;0.20;0.00;41;-128;-8757
9965;-0.01;0.98;0.20;0.00;45;-127;-8762
9983;-0.01;0.98;0.20;0.00;49;-125;-8757
10002;-0.01;0.98;0.20;0.00;47;-128;-8755
10018;-0.01;0.98;0.20;0.00;45;-125;-8761
10034;-0.01;0.98;0.20;0.00;44;-123;-8767
10057;-0.01;0.98;0.20;0.00;46;-128;-8768
10073;-0.01;0.98;0.20;0.00;49;-127;-8767
10090;-0.01;0.98;0.20;0.00;50;-126;-8769
10107;-0.01;0.98;0.20;0.00;48;-128;-8768
10126;-0.01;0.98;0.20;0.00;51;-132;-8769
10143;-0.01;0.98;0.20;0.00;50;-129;-8769
10159;-0.01;0.98;0.20;0.00;47;-129;-8769
10177;-0.01;0.98;0.20;0.00;48;-128;-8766
10195;-0.01;0.98;0.20;0.00;43;-129;-8771
10213;-0.01;0.98;0.20;0.00;47;-132;-8773
10229;-0.01;0.98;0.20;0.00;50;-134;-8778
10247;-0.01;0.98;0.20;0.00;48;-134;-8771
10268;-0.01;0.98;0.20;0.00;50;-133;-8766
10285;-0.01;0.98;0.20;0.00;52;-132;-8768
10303;-0.01;0.98;0.20;0.00;55;-135;-8772
10320;-0.01;0.98;0.20;0.00;55;-132;-8771
10338;-0.01;0.98;0.20;0.00;-18881;27391;13374
10359;-0.01;0.98;0.20;0.00;58;-128;-8773
10377;-0.01;0.98;0.20;0.00;54;-127;-8774
10394;-0.01;0.98;0.20;0.00;54;-125;-8773
10411;-0.01;0.98;0.20;0.00;58;-126;-8776
10429;-0.01;0.98;0.20;0.00;55;-124;-8779
10446;-0.01;0.98;0.20;0.00;52;-124;-8774
10464;-0.01;0.98;0.20;0.00;51;-126;-8770
10484;-0.01;0.98;0.20;0.00;50;-130;-8775
10503;-0.01;0.98;0.20;0.00;53;-132;-8775
10520;-0.01;0.98;0.20;0.00;49;-134;-8776
10535;-0.01;0.98;0.20;0.00;46;-130;-8773
10553;-0.01;0.98;0.20;0.00;47;-127;-8773
10572;-0.01;0.98;0.20;0.00;44;-126;-8775
10589;-0.01;0.98;0.20;0.00;44;-132;-8775
10605;-0.01;0.98;0.20;0.00;48;-130;-8768
10622;-0.01;0.98;0.20;0.00;52;-130;-8777
10641;-0.01;0.98;0.20;0.00;55;-129;-8770
10658;-0.01;0.98;0.20;0.00;60;-132;-8773
10675;-0.01;0.98;0.20;0.00;59;-128;-8773
10696;-0.01;0.98;0.20;0.00;57;-129;-8773
10714;-0.01;0.98;0.20;0.00;52;-129;-8776
10731;-0.01;0.98;0.20;0.00;50;-129;-8769
10747;-0.01;0.98;0.20;0.00;50;-132;-8775
10766;-0.01;0.98;0.20;0.00;52;-133;-8775
10784;-0.01;0.98;0.20;0.00;57;-129;-8778
10802;-0.01;0.98;0.20;0.00;56;-129;-8781
10819;-0.01;0.98;0.20;0.00;57;-128;-8773
10851;-0.01;0.98;0.20;0.00;54;-123;-8769
10868;-0.01;0.98;0.20;0.00;50;-123;-8768
10883;-0.01;0.98;0.20;0.00;46;-125;-8769
10909;-0.01;0.98;0.20;0.00;44;-122;-8774
10928;-0.01;0.98;0.20;0.00;44;-120;-8773
10948;-0.01;0.98;0.20;0.00;50;-121;-8773
10965;-0.01;0.98;0.20;0.00;52;-124;-8772
10981;-0.01;0.98;0.20;0.00;49;-124;-8778
10998;-0.01;0.98;0.20;0.00;48;-123;-8777
11018;-0.01;0.98;0.20;0.00;48;-125;-8776
11034;-0.01;0.98;0.20;0.00;50;-126;-8771
11050;-0.01;0.98;0.20;0.00;54;-126;-8775
11068;-0.01;0.98;0.20;0.00;58;-125;-8771
11086;-0.01;0.98;0.20;0.00;53;-127;-8774
11104;-0.01;0.98;0.20;0.00;48;-127;-8771
11120;-0.01;0.98;0.20;0.00;45;-125;-8775
11137;-0.01;0.98;0.20;0.00;50;-125;-8769
11160;-0.01;0.98;0.20;0.00;55;-128;-8772
11176;-0.01;0.98;0.20;0.00;56;-128;-8768
11193;-0.01;0.98;0.20;0.00;56;-130;-8766
11211;-0.01;0.98;0.20;0.00;56;-128;-8770
11230;-0.01;0.98;0.20;0.00;57;-131;-8771
11246;-0.01;0.98;0.20;0.00;53;-131;-8768
11262;-0.01;0.98;0.20;0.00;49;-130;-8764
11281;-0.01;0.98;0.20;0.00;48;-127;-8766
11299;-0.01;0.98;0.20;0.00;51;-128;-8776
11317;-0.01;0.98;0.20;0.00;56;-132;-8773
11334;-0.01;0.98;0.20;0.00;51;-133;-8772
11363;-0.01;0.98;0.20;0.00;52;-133;-8778
11383;-0.01;0.98;0.20;0.00;53;-132;-8779
11400;-0.01;0.98;0.20;0.00;51;-131;-8777
11417;-0.01;0.98;0.20;0.00;51;-129;-8773
11435;-0.01;0.98;0.20;0.00;53;-130;-8772
11459;-0.01;0.98;0.20;0.00;52;-128;-8760
12478;-0.01;0.98;0.20;0.00;49;-129;-8761
12495;-0.01;0.98;0.20;0.00;53;-127;-8756
12515;-0.01;0.98;0.20;0.00;53;-126;-8757
12532;-0.01;0.98;0.20;0.00;54;-129;-8761
12547;-0.01;0.98;0.20;0.00;53;-129;-8761
12566;-0.01;0.98;0.20;0.00;52;-132;-8762
12584;-0.01;0.98;0.20;0.00;53;-135;-8763
12605;-0.01;0.98;0.20;0.00;50;-131;-8765
12622;-0.01;0.98;0.20;0.00;49;-129;-8762
12640;-0.01;0.98;0.20;0.00;46;-130;-8761
12657;-0.01;0.98;0.20;0.00;47;-125;-8759
12674;-0.01;0.98;0.20;0.00;45;-125;-8761
12692;-0.01;0.98;0.20;0.00;44;-124;-8763
12709;-0.01;0.98;0.20;0.00;48;-126;-8769
12727;-0.01;0.98;0.20;0.00;52;-124;-8772
12744;-0.01;0.98;0.20;0.00;50;-124;-8774
12762;-0.01;0.98;0.20;0.00;54;-121;-8776
12780;-0.01;0.98;0.20;0.00;52;-121;-8770
12797;-0.01;0.98;0.20;0.00;52;-123;-8770
12819;-0.01;0.98;0.20;0.00;54;-120;-8764
12836;-0.01;0.98;0.20;0.00;52;-121;-8765
12853;-0.01;0.98;0.20;0.00;51;-123;-8766
12870;-0.01;0.98;0.20;0.00;52;-126;-8768
12888;-0.01;0.98;0.20;0.00;46;-129;-8765
12906;-0.01;0.98;0.20;0.00;48;-125;-8763
12922;-0.01;0.98;0.20;0.00;48;-125;-8765
12940;-0.01;0.98;0.20;0.00;54;-126;-8774
12959;-0.01;0.98;0.20;0.00;54;-125;-8780
12975;-0.01;0.98;0.20;0.00;51;-125;-8778
12992;-0.01;0.98;0.20;0.00;46;-124;-8771
13009;-0.01;0.98;0.20;0.00;45;-125;-8772
13038;-0.01;0.98;0.20;0.00;55;-132;-8772
13054;-0.01;0.98;0.20;0.00;57;-131;-8774
13071;-0.01;0.98;0.20;0.00;49;-127;-8769
13089;-0.01;0.98;0.20;0.00;47;-131;-8768
13108;-0.01;0.98;0.20;0.00;47;-135;-8768
13124;-0.01;0.98;0.20;0.00;44;-134;-8772
13140;-0.01;0.98;0.20;0.00;50;-133;-8770
13160;-0.01;0.98;0.20;0.00;46;-133;-8769
13178;-0.01;0.98;0.20;0.00;51;-134;-8767
13194;-0.01;0.98;0.20;0.00;51;-135;-8771
13210;-0.01;0.98;0.20;0.00;51;-134;-8768
13229;-0.01;0.98;0.20;0.00;53;-127;-8769
13248;-0.01;0.98;0.20;0.00;52;-127;-8775
13266;-0.01;0.98;0.20;0.00;50;-125;-8772
13285;-0.01;0.98;0.20;0.00;46;-128;-8773
13303;-0.01;0.98;0.20;0.00;47;-125;-8769
13321;-0.01;0.98;0.20;0.00;48;-125;-8770
13337;-0.01;0.98;0.20;0.00;48;-126;-8776
13354;-0.01;0.98;0.20;0.00;50;-125;-8771
13373;-0.01;0.98;0.20;0.00;48;-127;-8773
13390;-0.01;0.98;0.20;0.00;51;-127;-8775
13407;-0.01;0.98;0.20;0.00;51;-124;-8775
13424;-0.01;0.98;0.20;0.00;47;-125;-8769
13443;-0.01;0.98;0.20;0.00;47;-124;-8764
13460;-0.01;0.98;0.20;0.00;48;-125;-8766
13480;-0.01;0.98;0.20;0.00;50;-131;-8769
13498;-0.01;0.98;0.20;0.00;50;-131;-8770
13516;-0.01;0.98;0.20;0.00;50;-131;-8764
13534;-0.01;0.98;0.20;0.00;45;-133;-8763
13551;-0.01;0.98;0.20;0.00;49;-134;-8759
13568;-0.01;0.98;0.20;0.00;52;-134;-8753
13586;-0.01;0.98;0.20;0.00;12031;19421;-12622
13607;-0.01;0.98;0.20;0.00;40;-123;-8767
13625;-0.01;0.98;0.20;0.00;41;-123;-8764
13642;-0.01;0.98;0.20;0.00;40;-126;-8763
13661;-0.01;0.98;0.20;0.00;40;-126;-8770
13677;-0.01;0.98;0.20;0.00;43;-130;-8777
13699;-0.01;0.98;0.20;0.00;48;-130;-8778
13717;-0.01;0.98;0.20;0.00;42;-135;-8770
13735;-0.01;0.98;0.20;0.00;39;-135;-8771
13766;-0.01;0.98;0.20;0.00;46;-133;-8767
13782;-0.01;0.98;0.20;0.00;42;-129;-8766
13799;-0.01;0.98;0.20;0.00;44;-131;-8769
13817;-0.01;0.98;0.20;0.00;47;-130;-8760
13835;-0.01;0.98;0.20;0.00;46;-127;-8759
13851;-0.01;0.98;0.20;0.00;49;-123;-8769
13868;-0.01;0.98;0.20;0.00;45;-124;-8768
13887;-0.01;0.98;0.20;0.00;49;-128;-8767
13904;-0.01;0.98;0.20;0.00;45;-129;-8767
13925;-0.01;0.98;0.20;0.00;44;-127;-8770
13942;-0.01;0.98;0.20;0.00;46;-130;-8770
13960;-0.01;0.98;0.20;0.00;51;-133;-8773
13977;-0.01;0.98;0.20;0.00;55;-132;-8781
13994;-0.01;0.98;0.20;0.00;58;-133;-8787
14011;-0.01;0.98;0.20;0.00;54;-135;-8783
14028;-0.01;0.98;0.20;0.00;48;-136;-8787
14047;-0.01;0.98;0.20;0.00;47;-135;-8785
14064;-0.01;0.98;0.20;0.00;56;-134;-8780
14079;-0.01;0.98;0.20;0.00;52;-130;-8781
14097;-0.01;0.98;0.20;0.00;50;-129;-8779
14116;-0.01;0.98;0.20;0.00;50;-129;-8781
14136;-0.01;0.98;0.20;0.00;1587;-127;16047
14157;-0.01;0.98;0.20;0.00;40;-126;-8779
14177;-0.01;0.98;0.20;0.00;44;-125;-8770
14195;-0.01;0.98;0.20;0.00;45;-124;-8768
14211;-0.01;0.98;0.20;0.00;50;-129;-8773
14227;-0.01;0.98;0.20;0.00;50;-126;-8773
14246;-0.01;0.98;0.20;0.00;51;-126;-8771
14265;-0.01;0.98;0.20;0.00;51;-127;-8774
14280;-0.01;0.98;0.20;0.00;48;-129;-8776
14296;-0.01;0.98;0.20;0.00;40;-125;-8780
14316;-0.01;0.98;0.20;0.00;46;-123;-8778
14334;-0.01;0.98;0.20;0.00;45;-123;-8775
14353;-0.01;0.98;0.20;0.00;44;-125;-8772
14370;-0.01;0.98;0.20;0.00;48;-127;-8772
14389;-0.01;0.98;0.20;0.00;51;-127;-8775
14406;-0.01;0.98;0.20;0.00;52;-128;-8775
14423;-0.01;0.98;0.20;0.00;48;-132;-8778
14442;-0.01;0.98;0.20;0.00;46;-133;-8776
14471;-0.01;0.98;0.20;0.00;49;-133;-8775
14487;-0.01;0.98;0.20;0.00;49;-133;-8777
14502;-0.01;0.98;0.20;0.00;53;-134;-8776
14521;-0.01;0.98;0.20;0.00;55;-138;-8774
14539;-0.01;0.98;0.20;0.00;50;-133;-8771
14557;-0.01;0.98;0.20;0.00;48;-126;-8769
14572;-0.01;0.98;0.20;0.00;51;-131;-8765
14587;-0.01;0.98;0.20;0.00;51;-135;-8766
14607;-0.01;0.98;0.20;0.00;52;-132;-8768
14624;-0.01;0.98;0.20;0.00;51;-130;-8767
14639;-0.01;0.98;0.20;0.00;53;-125;-8769
14657;-0.01;0.98;0.20;0.00;56;-124;-8766
14676;-0.01;0.98;0.20;0.00;54;-127;-8763
14693;-0.01;0.98;0.20;0.00;53;-128;-8760
14717;-0.01;0.98;0.20;0.00;54;-137;-8778
14735;-0.01;0.98;0.20;0.00;48;-141;-8770
14753;-0.01;0.98;0.20;0.00;46;-138;-8765
14771;-0.01;0.98;0.20;0.00;50;-136;-8770
14787;-0.01;0.98;0.20;0.00;50;-137;-8770
14808;-0.01;0.98;0.20;0.00;45;-133;-8774
14826;-0.01;0.98;0.20;0.00;45;-131;-8777
14843;-0.01;0.98;0.20;0.00;45;-129;-8775
14861;-0.01;0.98;0.20;0.00;48;-134;-8771
14878;-0.01;0.98;0.20;0.00;52;-135;-8771
14895;-0.01;0.98;0.20;0.00;44;-134;-8774
14913;-0.01;0.98;0.20;0.00;37;-132;-8779
14930;-0.01;0.98;0.20;0.00;36;-129;-8777
14948;-0.01;0.98;0.20;0.00;33;-131;-8779
14965;-0.01;0.98;0.20;0.00;36;-132;-8777
14981;-0.01;0.98;0.20;0.00;40;-134;-8771
15000;-0.01;0.98;0.20;0.00;45;-132;-8759
15019;-0.01;0.98;0.20;0.00;47;-133;-8765
15037;-0.01;0.98;0.20;0.00;51;-132;-8764
15055;-0.01;0.98;0.20;0.00;48;-133;-8771
15073;-0.01;0.98;0.20;0.00;51;-132;-8771
15089;-0.01;0.98;0.20;0.00;50;-131;-8766
15106;-0.01;0.98;0.20;0.00;50;-128;-8768
15125;-0.01;0.98;0.20;0.00;45;-127;-8765
15142;-0.01;0.98;0.20;0.00;46;-130;-8766
15159;-0.01;0.98;0.20;0.00;51;-129;-8768
15176;-0.01;0.98;0.20;0.00;57;-129;-8775
15194;-0.01;0.98;0.20;0.00;53;-126;-8772
15212;-0.01;0.98;0.20;0.00;56;-127;-8773
15231;-0.01;0.98;0.20;0.00;57;-130;-8771
15250;-0.01;0.98;0.20;0.00;57;-128;-8767
16286;-0.01;0.98;0.20;0.00;56;-128;-8786
16302;-0.01;0.98;0.20;0.00;57;-127;-8777
16319;-0.01;0.98;0.20;0.00;54;-126;-8774
16337;-0.01;0.98;0.20;0.00;55;-126;-8773
16356;-0.01;0.98;0.20;0.00;54;-127;-8774
16372;-0.01;0.98;0.20;0.00;56;-126;-8778
16388;-0.01;0.98;0.20;0.00;57;-125;-8778
16407;-0.01;0.98;0.20;0.00;55;-131;-8778
16425;-0.01;0.98;0.20;0.00;50;-133;-8774
16442;-0.01;0.98;0.20;0.00;44;-131;-8773
16462;-0.01;0.98;0.20;0.00;46;-130;-8776
16481;-0.01;0.98;0.20;0.00;44;-130;-8773
16498;-0.01;0.98;0.20;0.00;47;-129;-8775
16514;-0.01;0.98;0.20;0.00;49;-125;-8762
16532;-0.01;0.98;0.20;0.00;47;-121;-8757
16550;-0.01;0.98;0.20;0.00;48;-125;-8757
16568;-0.01;0.98;0.20;0.00;46;-125;-8762
16583;-0.01;0.98;0.20;0.00;47;-123;-8767
16600;-0.01;0.98;0.20;0.00;48;-122;-8767
16620;-0.01;0.98;0.20;0.00;48;-126;-8764
16638;-0.01;0.98;0.20;0.00;43;-124;-8766
16656;-0.01;0.98;0.20;0.00;45;-123;-8765
16693;-0.01;0.98;0.20;0.00;44;-125;-8765
16710;-0.01;0.98;0.20;0.00;43;-125;-8760
16727;-0.01;0.98;0.20;0.00;46;-127;-8761
16746;-0.01;0.98;0.20;0.00;42;-124;-8768
16762;-0.01;0.98;0.20;0.00;42;-130;-8766
16781;-0.01;0.98;0.20;0.00;46;-132;-8766
16797;-0.01;0.98;0.20;0.00;46;-131;-8765
16815;-0.01;-0.05;1.62;-1.79;3303;22;-1
16837;-0.01;0.98;0.20;0.00;48;-134;-8768
16854;-0.01;0.98;0.20;0.00;52;-133;-8773
16872;-0.01;0.98;0.20;0.00;47;-125;-8766
16889;-0.01;0.98;0.20;0.00;43;-125;-8769
16907;-0.01;0.98;0.20;0.00;42;-127;-8764
16926;-0.01;0.98;0.20;0.00;46;-127;-8772
16946;-0.01;0.98;0.20;0.00;48;-125;-8769
16963;-0.01;0.98;0.20;0.00;51;-122;-8773
16978;-0.01;0.98;0.20;0.00;52;-122;-8777
16997;-0.01;0.98;0.20;0.00;52;-124;-8778
17015;-0.01;0.98;0.20;0.00;53;-123;-8779
17033;-0.01;0.98;0.20;0.00;52;-123;-8778
17049;-0.01;0.98;0.20;0.00;56;-122;-8774
17066;-0.01;0.98;0.20;0.00;57;-121;-8774
17085;-0.01;0.98;0.20;0.00;59;-120;-8780
17102;-0.01;0.98;0.20;0.00;55;-124;-8777
17119;-0.01;0.98;0.20;0.00;49;-130;-8777
17140;-0.01;0.98;0.20;0.00;47;-130;-8788
17159;-0.01;0.98;0.20;0.00;49;-130;-8787
17175;-0.01;0.98;0.20;0.00;48;-133;-8787
17190;-0.01;0.98;0.20;0.00;45;-131;-8783
17210;-0.01;0.98;0.20;0.00;49;-133;-8778
17228;-0.01;0.98;0.20;0.00;46;-134;-8770
17245;-0.01;0.98;0.20;0.00;50;-132;-8765
17261;-0.01;0.98;0.20;0.00;46;-133;-8766
17279;-0.01;0.98;0.20;0.00;44;-134;-8765
17298;-0.01;0.98;0.20;0.00;45;-131;-8766
17314;-0.01;0.98;0.20;0.00;44;-132;-8762
17331;-0.01;0.98;0.20;0.00;43;-131;-8758
17353;-0.01;0.98;0.20;0.00;42;-133;-8758
17370;-0.01;0.98;0.20;0.00;43;-130;-8760
17396;-0.01;0.98;0.20;0.00;49;-131;-8773
17413;-0.01;0.98;0.20;0.00;53;-131;-8773
17432;-0.01;0.98;0.20;0.00;52;-130;-8770
17449;-0.01;0.98;0.20;0.00;49;-128;-8769
17466;-0.01;0.98;0.20;0.00;51;-125;-8771
17483;-0.01;0.98;0.20;0.00;53;-125;-8765
17502;-0.01;0.98;0.20;0.00;52;-122;-8765
17519;-0.01;0.98;0.20;0.00;47;-123;-8767
17536;-0.01;0.98;0.20;0.00;47;-128;-8762
17555;-0.01;0.98;0.20;0.00;44;-128;-8761
17590;-0.01;0.98;0.20;0.00;42;-129;-8768
17606;-0.01;0.98;0.20;0.00;39;-127;-8772
17623;-0.01;0.98;0.20;0.00;39;-126;-8774
17641;-0.01;0.98;0.20;0.00;38;-125;-8769
17659;-0.01;0.98;0.20;0.00;42;-124;-8770
17677;-0.01;0.98;0.20;0.00;45;-126;-8774
17694;-0.01;0.98;0.20;0.00;42;-123;-8769
17711;-0.01;0.98;0.20;0.00;42;-128;-8766
17729;-0.01;0.98;0.20;0.00;45;-129;-8767
17746;-0.01;0.98;0.20;0.00;49;-130;-8764
17764;-0.01;0.98;0.20;0.00;52;-127;-8764
17781;-0.01;0.98;0.20;0.00;53;-126;-8765
17802;-0.01;0.98;0.20;0.00;59;-129;-8766
17820;-0.01;0.98;0.20;0.00;59;-128;-8764
17837;-0.01;0.98;0.20;0.00;55;-127;-8765
17854;-0.01;0.98;0.20;0.00;55;-127;-8766
17871;-0.01;0.98;0.20;0.00;54;-124;-8769
17890;-0.01;0.98;0.20;0.00;53;-123;-8768
17907;-0.01;0.98;0.20;0.00;53;-123;-8769
17923;-0.01;0.98;0.20;0.00;49;-122;-8770
17946;-0.01;0.98;0.20;0.00;46;-129;-8762
17964;-0.01;0.98;0.20;0.00;45;-126;-8764
17982;-0.01;0.98;0.20;0.00;48;-130;-8764
17998;-0.01;0.98;0.20;0.00;50;-124;-8763
18016;-0.01;0.98;0.20;0.00;54;-127;-8759
18038;-0.01;0.98;0.20;0.00;57;-130;-8760
18055;-0.01;0.98;0.20;0.00;55;-132;-8763
18071;-0.01;0.98;0.20;0.00;52;-130;-8767
18090;-0.01;0.98;0.20;0.00;54;-128;-8767
18109;-0.01;0.98;0.20;0.00;52;-131;-8767
18125;-0.01;0.98;0.20;0.00;52;-127;-8767
18141;-0.01;0.98;0.20;0.00;50;-129;-8766
18160;-0.01;0.98;0.20;0.00;47;-129;-8767
18178;-0.01;0.98;0.20;0.00;44;-130;-8766
18195;-0.01;0.98;0.20;0.00;43;-125;-8771
18211;-0.01;0.98;0.20;0.00;42;-126;-8776
18230;-0.01;0.98;0.20;0.00;39;-121;-8777
18251;-0.01;0.98;0.20;0.00;41;-121;-8775
18268;-0.01;0.98;0.20;0.00;42;-122;-8768
18285;-0.01;0.98;0.20;0.00;45;-123;-8767
18303;-0.01;0.98;0.20;0.00;48;-122;-8766
18321;-0.01;0.98;0.20;0.00;49;-121;-8767
18337;-0.01;0.98;0.20;0.00;53;-124;-8764
18355;-0.01;0.98;0.20;0.00;52;-128;-8761
18373;-0.01;0.98;0.20;0.00;50;-128;-8760
18390;-0.01;0.98;0.20;0.00;48;-133;-8769
18407;-0.01;0.98;0.20;0.00;52;-132;-8773
18424;-0.01;0.98;0.20;0.00;52;-131;-8780
18443;-0.01;0.98;0.20;0.00;51;-129;-8777
18463;-0.01;0.98;0.20;0.00;51;-132;-8776
18480;-0.01;0.98;0.20;0.00;50;-135;-8776
18505;-0.01;0.98;0.20;0.00;40;-128;-8780
18524;-0.01;0.98;0.20;0.00;37;-133;-8785
18562;-0.01;0.98;0.20;0.00;39;-132;-8788
18579;-0.01;0.98;0.20;0.00;41;-127;-8780
18595;-0.01;0.98;0.20;0.00;44;-124;-8772
18613;-0.01;0.98;0.20;0.00;44;-122;-8774
18631;-0.01;0.98;0.20;0.00;48;-124;-8774
18648;-0.01;0.98;0.20;0.00;51;-127;-8773
18665;-0.01;0.98;0.20;0.00;50;-129;-8770
18682;-0.01;0.98;0.20;0.00;50;-127;-8772
18705;-0.01;0.98;0.20;0.00;54;-129;-8776
18721;-0.01;0.98;0.20;0.00;57;-129;-8774
18736;-0.01;0.98;0.20;0.00;56;-132;-8776
18756;-0.01;0.98;0.20;0.00;52;-130;-8774
18774;-0.01;0.98;0.20;0.00;47;-126;-8773
18791;-0.01;0.98;0.20;0.00;43;-126;-8772
18807;-0.01;0.98;0.20;0.00;48;-123;-8773
18826;-0.01;0.98;0.20;0.00;46;-125;-8772
18844;-0.01;0.98;0.20;0.00;47;-125;-8774
18860;-0.01;0.98;0.20;0.00;52;-128;-8775
18877;-0.01;0.98;0.20;0.00;53;-129;-8771
18895;-0.01;0.98;0.20;0.00;51;-129;-8769
18917;-0.01;0.98;0.20;0.00;48;-130;-8765
18933;-0.01;0.98;0.20;0.00;49;-129;-8767
18951;-0.01;0.98;0.20;0.00;52;-128;-8768
18969;-0.01;0.98;0.20;0.00;50;-131;-8773
18986;-0.01;0.98;0.20;0.00;50;-132;-8771
19003;-0.01;0.98;0.20;0.00;47;-134;-8778
19020;-0.01;0.98;0.20;0.00;50;-132;-8780
19045;-0.01;0.98;0.20;0.00;48;-125;-8787
19062;-0.01;0.98;0.20;0.00;43;-131;-8789
19079;-0.01;0.98;0.20;0.00;43;-131;-8788
19096;-0.01;0.98;0.20;0.00;44;-128;-8785
20115;-0.01;0.98;0.20;0.00;57;-124;-8772
20132;-0.01;0.98;0.20;0.00;59;-123;-8772
20153;-0.01;0.98;0.20;0.00;57;-120;-8767
20170;-0.01;0.98;0.20;0.00;54;-120;-8772
20188;-0.01;0.98;0.20;0.00;54;-126;-8776
20205;-0.01;0.98;0.20;0.00;56;-130;-8778
20222;-0.01;0.98;0.20;0.00;59;-130;-8775
20240;-0.01;0.98;0.20;0.00;55;-132;-8774
20257;-0.01;0.98;0.20;0.00;55;-130;-8779
20275;-0.01;0.98;0.20;0.00;52;-125;-8779
20292;-0.01;0.98;0.20;0.00;51;-124;-8778
20309;-0.01;0.98;0.20;0.00;48;-123;-8780
20327;-0.01;0.98;0.20;0.00;52;-128;-8775
20344;-0.01;0.98;0.20;0.00;51;-130;-8773
20377;-0.01;0.98;0.20;0.00;48;-131;-8768
20396;-0.01;0.98;0.20;0.00;47;-128;-8769
20415;-0.01;0.98;0.20;0.00;52;-125;-8774
20434;-0.01;0.98;0.20;0.00;56;-130;-8772
20454;-0.01;0.98;0.20;0.00;54;-132;-8769
20472;-0.01;0.98;0.20;0.00;50;-131;-8771
20492;-0.01;0.98;0.20;0.00;48;-132;-8776
20513;-0.01;0.98;0.20;0.00;48;-131;-8778
20533;-0.01;0.98;0.20;0.00;48;-132;-8781
20551;-0.01;0.98;0.20;0.00;48;-129;-8779
20570;-0.01;0.98;0.20;0.00;45;-130;-8775
20596;-0.01;0.98;0.20;0.00;44;-135;-8762
20620;-0.01;0.98;0.20;0.00;46;-137;-8769
20639;-0.01;0.98;0.20;0.00;48;-138;-8775
20671;-0.01;0.98;0.20;0.00;45;-136;-8776
20690;-0.01;0.98;0.20;0.00;45;-137;-8774
20709;-0.01;0.98;0.20;0.00;48;-138;-8771
20727;-0.01;0.98;0.20;0.00;46;-136;-8773
20748;-0.01;0.98;0.20;0.00;50;-131;-8777
20768;-0.01;0.98;0.20;0.00;52;-131;-8771
20787;-0.01;0.98;0.20;0.00;53;-127;-8763
20805;-0.01;0.98;0.20;0.00;50;-127;-8768
20826;-0.01;0.98;0.20;0.00;52;-123;-8779
20847;-0.01;0.98;0.20;0.00;49;-123;-8778
20868;-0.01;0.98;0.20;0.00;51;-127;-8775
20888;-0.01;0.98;0.20;0.00;49;-129;-8778
20908;-0.01;0.98;0.20;0.00;49;-128;-8772
20928;-0.01;0.98;0.20;0.00;51;-131;-8770
20946;-0.01;0.98;0.20;0.00;49;-133;-8776
20966;-0.01;0.98;0.20;0.00;48;-133;-8778
20987;-0.01;0.98;0.20;0.00;50;-132;-8783
21007;-0.01;0.98;0.20;0.00;50;-131;-8782
21025;-0.01;0.98;0.20;0.00;52;-126;-8777
21045;-0.01;0.98;0.20;0.00;48;-123;-8769
21065;-0.00;0.83;1.96;-0.96;6400;15872;-12288
21087;-0.01;0.98;0.20;0.00;51;-131;-8767
21109;-0.01;0.98;0.20;0.00;50;-131;-8761
21129;-0.01;0.98;0.20;0.00;49;-133;-8763
21148;-0.01;0.98;0.20;0.00;50;-132;-8765
21167;-0.01;0.98;0.20;0.00;50;-134;-8762
21187;-0.01;0.98;0.20;0.00;44;-136;-8762
21206;-0.01;0.98;0.20;0.00;49;-134;-8758
21227;-0.01;0.98;0.20;0.00;45;-132;-8759
21246;-0.01;0.98;0.20;0.00;43;-127;-8760
21266;-0.01;0.98;0.20;0.00;43;-125;-8766
21285;-0.01;0.98;0.20;0.00;48;-122;-8765
21305;-0.01;0.98;0.20;0.00;50;-122;-8762
21324;-0.01;0.98;0.20;0.00;50;-125;-8761
21348;-0.01;0.98;0.20;0.00;52;-122;-8765
21366;-0.01;0.98;0.20;0.00;51;-128;-8765
21387;-0.01;0.98;0.20;0.00;51;-124;-8765
21407;-0.01;0.98;0.20;0.00;51;-123;-8766
21427;-0.01;0.98;0.20;0.00;50;-125;-8769
21445;-0.01;0.98;0.20;0.00;53;-126;-8762
21464;-0.01;0.98;0.20;0.00;51;-124;-8758
21486;-0.01;0.98;0.20;0.00;54;-121;-8760
21505;-0.01;0.98;0.20;0.00;45;-123;-8763
21525;-0.01;0.98;0.20;0.00;43;-123;-8767
21546;-0.01;0.98;0.20;0.00;44;-122;-8766
21596;-0.01;0.98;0.20;0.00;45;-127;-8771
21614;-0.01;0.98;0.20;0.00;45;-125;-8772
21635;-0.01;0.98;0.20;0.00;46;-121;-8775
21657;-0.01;0.98;0.20;0.00;47;-119;-8769
21677;-0.01;0.98;0.20;0.00;44;-120;-8773
21696;-0.01;0.98;0.20;0.00;46;-126;-8773
21714;-0.01;0.98;0.20;0.00;47;-125;-8766
21736;-0.01;0.98;0.20;0.00;46;-130;-8762
21756;-0.01;0.98;0.20;0.00;47;-128;-8763
21775;-0.01;0.98;0.20;0.00;48;-121;-8765
21793;-0.01;0.98;0.20;0.00;47;-124;-8765
21815;-0.01;0.98;0.20;0.00;51;-124;-8763
21835;-0.01;0.98;0.20;0.00;45;-123;-8764
21854;-0.01;0.98;0.20;0.00;48;-123;-8765
21876;-0.01;0.98;0.20;0.00;50;-124;-8766
21898;-0.01;0.98;0.20;0.00;49;-125;-8765
21917;-0.01;0.98;0.20;0.00;52;-127;-8772
21935;-0.01;0.98;0.20;0.00;55;-126;-8778
21955;-0.01;0.98;0.20;0.00;51;-128;-8778
21975;-0.01;0.98;0.20;0.00;49;-129;-8778
21996;-0.01;0.98;0.20;0.00;53;-127;-8777
22013;-0.01;0.98;0.20;0.00;55;-125;-8781
22034;-0.01;0.98;0.20;0.00;52;-121;-8780
22054;-0.01;0.98;0.20;0.00;53;-119;-8778
22074;-0.01;0.98;0.20;0.00;14717;-31250;-18009
22096;-0.01;0.98;0.20;0.00;44;-135;-8774
22120;-0.01;0.98;0.20;0.00;43;-130;-8775
22139;-0.01;0.98;0.20;0.00;48;-129;-8775
22160;-0.01;0.98;0.20;0.00;46;-131;-8777
22179;-0.01;0.98;0.20;0.00;40;-129;-8775
22199;-0.01;0.98;0.20;0.00;46;-129;-8774
22218;-0.01;0.98;0.20;0.00;45;-126;-8769
22238;-0.01;0.98;0.20;0.00;44;-126;-8774
22258;-0.01;0.98;0.20;0.00;48;-129;-8777
22277;-0.01;0.98;0.20;0.00;51;-129;-8776
22297;-0.01;0.98;0.20;0.00;52;-129;-8769
22316;-0.01;0.98;0.20;0.00;50;-131;-8770
22337;-0.01;0.98;0.20;0.00;51;-132;-8775
22359;-0.01;0.98;0.20;0.00;51;-132;-8773
22379;-0.01;0.98;0.20;0.00;50;-128;-8773
22399;-0.01;0.98;0.20;0.00;53;-127;-8778
22420;-0.01;0.98;0.20;0.00;57;-127;-8777
22437;-0.01;0.98;0.20;0.00;56;-126;-8783
22458;-0.01;0.98;0.20;0.00;56;-128;-8782
22478;-0.01;0.98;0.20;0.00;56;-128;-8779
22498;-0.01;0.98;0.20;0.00;54;-130;-8775
22516;-0.01;0.98;0.20;0.00;53;-133;-8774
22537;-0.01;0.98;0.20;0.00;49;-130;-8768
22557;-0.01;0.98;0.20;0.00;49;-131;-8764
22586;-0.01;0.98;0.20;0.00;48;-127;-8769
22607;-0.01;0.98;0.20;0.00;48;-127;-8775
22629;-0.01;0.98;0.20;0.00;45;-125;-8779
22649;-0.01;0.98;0.20;0.00;45;-123;-8780
22668;-0.01;0.98;0.20;0.00;44;-123;-8783
22686;-0.01;0.98;0.20;0.00;45;-125;-8782
22708;-0.01;0.98;0.20;0.00;45;-123;-8786
22728;-0.01;0.98;0.20;0.00;45;-126;-8782
22746;-0.01;0.98;0.20;0.00;45;-128;-8786
22765;-0.01;0.98;0.20;0.00;48;-128;-8775
22786;-0.01;0.98;0.20;0.00;53;-132;-8774
22807;-0.01;0.98;0.20;0.00;54;-135;-8768
22825;-0.01;0.98;0.20;0.00;53;-137;-8765
22848;-0.01;0.98;0.20;0.00;52;-135;-8765
22869;-0.01;0.98;0.20;0.00;50;-134;-8766
22889;-0.01;0.98;0.20;0.00;51;-132;-8769
22907;-0.01;0.98;0.20;0.00;51;-128;-8774
22927;-0.01;0.98;0.20;0.00;49;-130;-8773
22948;-0.01;0.98;0.20;0.00;47;-131;-8773
22968;-0.01;0.98;0.20;0.00;44;-130;-8775
22987;-0.01;0.98;0.20;0.00;44;-129;-8778
23009;-0.01;0.98;0.20;0.00;40;-127;-8774
23039;-0.01;0.98;0.20;0.00;41;-128;-8774
23066;-0.01;0.98;0.20;0.00;47;-129;-8777
23084;-0.01;0.98;0.20;0.00;48;-128;-8777
23104;-0.01;0.98;0.20;0.00;43;-129;-8769
23127;-0.01;0.98;0.20;0.00;41;-127;-8769
23147;-0.01;0.98;0.20;0.00;39;-123;-8766
23167;-0.01;0.98;0.20;0.00;41;-128;-8766
23187;-0.01;0.98;0.20;0.00;46;-127;-8767
23206;-0.01;0.98;0.20;0.00;44;-128;-8767
23226;-0.01;0.98;0.20;0.00;42;-129;-8771
23245;-0.01;0.98;0.20;0.00;47;-130;-8768
24275;-0.01;0.98;0.20;0.00;52;-127;-8763
24295;-0.01;0.98;0.20;0.00;55;-126;-8770
24314;-0.01;0.98;0.20;0.00;55;-126;-8777
24335;-0.01;0.98;0.20;0.00;51;-125;-8780
24354;-0.01;0.98;0.20;0.00;47;-127;-8778
24377;-0.01;0.98;0.20;0.00;48;-131;-8784
24397;-0.01;0.98;0.20;0.00;48;-130;-8785
24417;-0.01;0.98;0.20;0.00;48;-128;-8786
24435;-0.01;0.98;0.20;0.00;48;-127;-8786
24456;-0.01;0.98;0.20;0.00;45;-120;-8786
24476;-0.01;0.98;0.20;0.00;47;-119;-8788
24493;-0.01;0.98;0.20;0.00;51;-121;-8790
24512;-0.01;0.98;0.20;0.00;50;-125;-8782
24533;-0.01;0.98;0.20;0.00;46;-126;-8780
24554;-0.01;0.12;1.49;-1.17;3298;20;0
24574;-0.01;0.98;0.20;0.00;49;-127;-8781
24593;-0.01;0.98;0.20;0.00;49;-127;-8777
24618;-0.01;0.98;0.20;0.00;49;-125;-8776
24639;-0.01;0.98;0.20;0.00;46;-123;-8777
24658;-0.01;0.98;0.20;0.00;43;-126;-8780
24700;-0.01;0.98;0.20;0.00;39;-129;-8772
24720;-0.01;0.98;0.20;0.00;41;-130;-8773
24739;-0.01;0.98;0.20;0.00;40;-134;-8775
24758;-0.01;0.98;0.20;0.00;34;-137;-8776
24778;-0.01;0.98;0.20;0.00;36;-129;-8765
24799;-0.01;0.98;0.20;0.00;39;-127;-8763
24818;-0.01;0.98;0.20;0.00;41;-125;-8763
24836;-0.01;0.98;0.20;0.00;45;-124;-8766
24856;-0.01;0.98;0.20;0.00;50;-124;-8769
24879;-0.01;0.98;0.20;0.00;50;-126;-8776
24899;-0.01;0.98;0.20;0.00;49;-126;-8779
24919;-0.01;0.98;0.20;0.00;45;-125;-8776
24939;-0.01;0.98;0.20;0.00;45;-130;-8774
24958;-0.01;0.98;0.20;0.00;43;-129;-8773
24978;-0.01;0.98;0.20;0.00;48;-133;-8773
24997;-0.01;0.98;0.20;0.00;49;-136;-8773
25017;-0.01;0.98;0.20;0.00;50;-138;-8771
25045;-0.01;0.98;0.20;0.00;46;-133;-8772
25065;-0.01;0.98;0.20;0.00;44;-134;-8769
25084;-0.01;0.98;0.20;0.00;49;-132;-8764
25104;-0.01;0.98;0.20;0.00;51;-132;-8771
25126;-0.01;0.98;0.20;0.00;45;-131;-8771
25147;-0.01;0.98;0.20;0.00;45;-130;-8771
25166;-0.01;0.98;0.20;0.00;48;-128;-8779
25185;-0.01;0.98;0.20;0.00;48;-128;-8782
25205;-0.01;0.98;0.20;0.00;50;-131;-8776
25226;-0.01;0.98;0.20;0.00;47;-131;-8771
25245;-0.01;0.98;0.20;0.00;44;-128;-8773
25263;-0.01;0.98;0.20;0.00;49;-129;-8780
25283;-0.01;0.98;0.20;0.00;50;-124;-8779
25303;-0.01;0.98;0.20;0.00;50;-126;-8784
25323;-0.01;0.98;0.20;0.00;50;-130;-8789
25341;-0.01;0.98;0.20;0.00;50;-131;-8787
25361;-0.01;0.98;0.20;0.00;46;-129;-8787
25386;-0.01;0.98;0.20;0.00;49;-132;-8777
25405;-0.01;0.98;0.20;0.00;45;-130;-8771
25422;-0.01;0.98;0.20;0.00;46;-129;-8772
25444;-0.01;0.98;0.20;0.00;46;-127;-8769
25464;-0.01;0.98;0.20;0.00;47;-128;-8766
25483;-0.01;0.98;0.20;0.00;49;-124;-8768
25501;-0.01;0.98;0.20;0.00;49;-124;-8772
25522;-0.01;0.98;0.20;0.00;51;-127;-8779
25544;-0.01;0.98;0.20;0.00;41;-128;-8758
25562;-0.01;0.98;0.20;0.00;45;-127;-8767
25581;-0.01;0.98;0.20;0.00;52;-127;-8771
25602;-0.01;0.98;0.20;0.00;46;-130;-8769
25626;-0.01;0.98;0.20;0.00;48;-130;-8771
25643;-0.01;0.98;0.20;0.00;47;-131;-8777
25664;-0.01;0.98;0.20;0.00;50;-132;-8775
25684;-0.01;0.98;0.20;0.00;55;-131;-8781
25704;-0.01;0.98;0.20;0.00;53;-129;-8780
25722;-0.01;0.98;0.20;0.00;51;-130;-8776
25742;-0.01;0.98;0.20;0.00;53;-130;-8770
25763;-0.01;0.98;0.20;0.00;53;-130;-8771
25783;-0.01;0.98;0.20;0.00;53;-124;-8764
25800;-0.01;0.98;0.20;0.00;50;-129;-8770
25821;-0.01;0.98;0.20;0.00;50;-123;-8767
25841;-0.01;0.98;0.20;0.00;53;-123;-8766
25864;-0.01;0.98;0.20;0.00;53;-125;-8766
25883;-0.01;0.98;0.20;0.00;56;-126;-8769
25902;-0.01;0.98;0.20;0.00;53;-129;-8766
25922;-0.01;0.98;0.20;0.00;47;-129;-8769
25941;-0.01;0.98;0.20;0.00;45;-129;-8768
25962;-0.01;0.98;0.20;0.00;44;-124;-8769
25981;-0.01;0.98;0.20;0.00;45;-127;-8770
26001;-0.01;0.98;0.20;0.00;48;-128;-8772
26020;-0.01;0.98;0.20;0.00;44;-131;-8777
26045;-0.01;0.98;0.20;0.00;56;-131;-8778
26064;-0.01;0.98;0.20;0.00;57;-131;-8772
26084;-0.01;0.98;0.20;0.00;54;-132;-8768
26107;-0.01;0.98;0.20;0.00;54;-133;-8768
26127;-0.01;0.98;0.20;0.00;49;-129;-8768
26145;-0.01;0.98;0.20;0.00;48;-127;-8770
26165;-0.01;0.98;0.20;0.00;46;-128;-8770
26185;-0.01;0.98;0.20;0.00;47;-128;-8767
26205;-0.01;0.98;0.20;0.00;50;-131;-8768
26223;-0.01;0.98;0.20;0.00;56;-132;-8772
26242;-0.01;0.98;0.20;0.00;52;-134;-8768
26264;-0.01;0.98;0.20;0.00;52;-134;-8769
26283;-0.01;0.98;0.20;0.00;48;-133;-8772
26302;-0.01;0.98;0.20;0.00;49;-133;-8775
26321;-0.01;0.98;0.20;0.00;49;-129;-8776
26346;-0.01;0.98;0.20;0.00;49;-127;-8780
26365;-0.01;0.98;0.20;0.00;41;-128;-8774
26385;-0.01;0.98;0.20;0.00;43;-128;-8771
26415;-0.01;0.98;0.20;0.00;46;-131;-8772
26435;-0.01;0.98;0.20;0.00;49;-134;-8774
26453;-0.01;0.98;0.20;0.00;50;-133;-8773
26472;-0.01;0.98;0.20;0.00;51;-132;-8767
26493;-0.01;0.98;0.20;0.00;50;-128;-8775
26524;-0.01;0.98;0.20;0.00;57;-129;-8773
26542;-0.01;0.98;0.20;0.00;53;-133;-8775
26561;-0.01;0.98;0.20;0.00;51;-135;-8775
26582;-0.01;0.98;0.20;0.00;51;-133;-8777
26603;-0.01;0.98;0.20;0.00;46;-132;-8776
26623;-0.01;0.98;0.20;0.00;50;-134;-8776
26644;-0.01;0.98;0.20;0.00;48;-132;-8774
26664;-0.01;0.98;0.20;0.00;48;-135;-8772
26684;-0.01;0.98;0.20;0.00;46;-133;-8770
26702;-0.01;0.98;0.20;0.00;45;-129;-8770
26723;-0.01;0.98;0.20;0.00;42;-129;-8770
26743;-0.01;0.98;0.20;0.00;50;-129;-8767
26765;-0.01;0.98;0.20;0.00;46;-132;-8768
26784;-0.01;0.98;0.20;0.00;52;-129;-8775
26821;-0.01;0.98;0.20;0.00;52;-128;-8772
26840;-0.01;0.98;0.20;0.00;49;-131;-8777
26860;-0.01;0.98;0.20;0.00;49;-132;-8776
26882;-0.01;0.98;0.20;0.00;48;-127;-8774
26902;-0.01;0.98;0.20;0.00;47;-126;-8772
26922;-0.01;0.98;0.20;0.00;46;-129;-8772
26942;-0.01;0.98;0.20;0.00;44;-130;-8773
26961;-0.01;0.98;0.20;0.00;44;-131;-8774
26981;-0.01;0.98;0.20;0.00;43;-130;-8774
27004;-0.01;0.98;0.20;0.00;46;-131;-8770
27024;-0.01;0.98;0.20;0.00;45;-127;-8775
27043;-0.01;0.98;0.20;0.00;48;-130;-8769
27063;-0.01;0.98;0.20;0.00;49;-126;-8765
27083;-0.01;0.98;0.20;0.00;50;-129;-8777
27103;-0.01;0.98;0.20;0.00;52;-130;-8781
27126;-0.01;0.98;0.20;0.00;48;-128;-8777
27145;-0.01;0.98;0.20;0.00;44;-126;-8773
27164;-0.01;0.98;0.20;0.00;43;-128;-8775
27186;-0.01;0.98;0.20;0.00;45;-131;-8777
27205;-0.01;0.98;0.20;0.00;45;-131;-8783
27223;-0.01;0.98;0.20;0.00;44;-127;-8782
27243;-0.01;0.98;0.20;0.00;41;-128;-8784
27264;-0.01;0.98;0.20;0.00;45;-130;-8784
27284;-0.01;0.98;0.20;0.00;45;-132;-8781
27302;-0.01;0.98;0.20;0.00;48;-132;-8779
27322;-0.01;0.98;0.20;0.00;48;-132;-8776
27343;-0.01;0.98;0.20;0.00;46;-134;-8768
27366;-0.01;0.98;0.20;0.00;45;-132;-8781
27384;-0.01;0.98;0.20;0.00;51;-134;-8781
27405;-0.01;0.98;0.20;0.00;49;-135;-8778
27425;-0.01;0.98;0.20;0.00;53;-132;-8771
28453;-0.01;0.98;0.20;0.00;45;-125;-8766
28472;-0.01;0.98;0.20;0.00;42;-125;-8765
28503;-0.01;0.98;0.20;0.00;46;-129;-8771
28524;-0.01;0.98;0.20;0.00;46;-134;-8769
28542;-0.01;0.98;0.20;0.00;43;-133;-8766
28561;-0.01;0.98;0.20;0.00;46;-132;-8763
28581;-0.01;0.98;0.20;0.00;47;-132;-8757
28603;-0.01;0.98;0.20;0.00;48;-134;-8758
28623;-0.01;0.98;0.20;0.00;43;-134;-8755
28644;-0.01;0.98;0.20;0.00;41;-130;-8754
28664;-0.01;0.98;0.20;0.00;48;-128;-8759
28684;-0.01;0.98;0.20;0.00;47;-128;-8757
28702;-0.01;0.98;0.20;0.00;44;-124;-8750
28723;-0.01;0.98;0.20;0.00;43;-128;-8756
28743;-0.01;0.98;0.20;0.00;46;-128;-8759
28762;-0.01;0.98;0.20;0.00;46;-133;-8760
28781;-0.01;0.98;0.20;0.00;44;-133;-8762
28801;-0.01;0.98;0.20;0.00;47;-131;-8765
28822;-0.01;0.98;0.20;0.00;46;-130;-8763
28841;-0.01;0.98;0.20;0.00;45;-132;-8765
28860;-0.01;0.98;0.20;0.00;47;-132;-8766
28883;-0.01;0.98;0.20;0.00;48;-129;-8773
28904;-0.01;0.98;0.20;0.00;44;-125;-8775
28923;-0.01;0.98;0.20;0.00;46;-122;-8769
28943;-0.01;0.98;0.20;0.00;48;-124;-8770
28962;-0.01;0.98;0.20;0.00;50;-128;-8777
28993;-0.01;0.98;0.20;0.00;48;-130;-8777
29012;-0.01;0.98;0.20;0.00;49;-127;-8783
29032;-0.01;0.98;0.20;0.00;48;-122;-8780
29052;-0.01;0.98;0.20;0.00;50;-123;-8775
29072;-0.01;0.98;0.20;0.00;51;-123;-8781
29091;-0.01;0.98;0.20;0.00;50;-124;-8781
29111;-0.01;0.98;0.20;0.00;52;-126;-8782
29133;-0.01;0.98;0.20;0.00;56;-126;-8780
29153;-0.01;0.98;0.20;0.00;58;-126;-8773
29174;-0.01;0.98;0.20;0.00;54;-123;-8765
29194;-0.01;0.98;0.20;0.00;52;-127;-8763
29212;-0.01;0.98;0.20;0.00;53;-128;-8765
29231;-0.01;0.98;0.20;0.00;56;-127;-8767
29253;-0.01;0.98;0.20;0.00;52;-125;-8763
29272;-0.01;0.98;0.20;0.00;49;-126;-8765
29290;-0.01;0.98;0.20;0.00;49;-126;-8767
29310;-0.01;0.98;0.20;0.00;45;-122;-8767
29331;-0.01;0.98;0.20;0.00;42;-123;-8765
29350;-0.01;0.98;0.20;0.00;40;-125;-8760
29372;-0.01;0.98;0.20;0.00;42;-124;-8760
29392;-0.01;0.98;0.20;0.00;45;-125;-8769
29414;-0.01;0.98;0.20;0.00;48;-124;-8771
29431;-0.01;0.98;0.20;0.00;49;-125;-8775
29450;-0.01;0.98;0.20;0.00;51;-124;-8776
29471;-0.01;0.98;0.20;0.00;48;-126;-8782
29493;-0.01;0.98;0.20;0.00;49;-132;-8772
29511;-0.01;0.98;0.20;0.00;48;-133;-8778
29530;-0.01;0.98;0.20;0.00;50;-132;-8776
29552;-0.01;0.98;0.20;0.00;49;-130;-8774
29571;-0.01;0.98;0.20;0.00;47;-131;-8776
29589;-0.01;0.98;0.20;0.00;45;-127;-8773
29613;-0.01;0.98;0.20;0.00;46;-127;-8772
29633;-0.01;0.98;0.20;0.00;44;-124;-8773
29652;-0.01;0.98;0.20;0.00;43;-125;-8772
29672;-0.01;0.98;0.20;0.00;44;-128;-8773
29691;-0.01;0.98;0.20;0.00;39;-132;-8769
29711;-0.01;0.98;0.20;0.00;43;-132;-8774
29730;-0.01;0.98;0.20;0.00;45;-133;-8778
29752;-0.01;0.98;0.20;0.00;48;-132;-8777
29772;-0.01;0.98;0.20;0.00;49;-134;-8777
29802;-0.01;0.98;0.20;0.00;46;-135;-8772
29819;-0.01;0.98;0.20;0.00;47;-136;-8766
29840;-0.01;0.98;0.20;0.00;46;-135;-8769
29863;-0.01;0.98;0.20;0.00;47;-137;-8764
29884;-0.01;0.98;0.20;0.00;46;-138;-8769
29923;-0.01;0.98;0.20;0.00;46;-134;-8769
29941;-0.01;0.98;0.20;0.12;-127;16049;3292
29963;-0.01;0.98;0.20;0.00;51;-131;-8782
29984;-0.01;0.98;0.20;0.00;56;-127;-8788
30004;-0.01;0.98;0.20;0.00;53;-130;-8797
30022;-0.01;0.98;0.20;0.00;51;-129;-8789
30041;-0.01;0.98;0.20;0.00;50;-127;-8788
30062;-0.01;0.98;0.20;0.00;52;-130;-8783
30081;-0.01;0.98;0.20;0.00;50;-134;-8787
30100;-0.01;0.98;0.20;0.00;45;-134;-8787
30123;-0.01;0.98;0.20;0.00;47;-133;-8787
30144;-0.01;0.98;0.20;0.00;47;-128;-8784
30163;-0.01;0.98;0.20;0.00;44;-123;-8786
30183;-0.01;0.98;0.20;0.00;44;-125;-8782
30202;-0.01;0.98;0.20;0.00;44;-122;-8780
30222;-0.01;0.98;0.20;0.00;46;-121;-8784
30241;-0.01;0.98;0.20;0.00;48;-119;-8784
30262;-0.01;0.98;0.20;0.00;48;-125;-8778
30281;-0.01;0.98;0.20;0.00;47;-127;-8774
30301;-0.01;0.98;0.20;0.00;45;-129;-8768
30320;-0.01;0.98;0.20;0.00;49;-131;-8767
30339;-0.01;0.98;0.20;0.00;51;-136;-8769
30359;-0.01;0.98;0.20;0.00;54;-135;-8769
30381;-0.01;0.98;0.20;0.00;53;-134;-8767
30403;-0.01;0.98;0.20;0.00;52;-131;-8765
30422;-0.01;0.98;0.20;0.00;46;-125;-8767
30441;-0.01;0.98;0.20;0.00;4921;25900;-6057
30462;-0.01;0.98;0.20;0.00;48;-129;-8774
30483;-0.01;0.98;0.20;0.00;50;-132;-8776
30502;-0.01;0.98;0.20;0.00;50;-134;-8777
30521;-0.01;0.98;0.20;0.00;50;-130;-8776
30540;-0.01;0.98;0.20;0.00;55;-131;-8770
30562;-0.01;0.98;0.20;0.00;58;-132;-8770
30581;-0.01;0.98;0.20;0.00;52;-131;-8782
30600;-0.01;0.98;0.20;0.00;48;-133;-8785
30623;-0.01;0.98;0.20;0.00;47;-132;-8779
30644;-0.01;0.98;0.20;0.00;42;-132;-8775
30662;-0.01;0.98;0.20;0.00;39;-131;-8773
30680;-0.01;0.98;0.20;0.00;37;-131;-8779
30702;-0.01;0.98;0.20;0.00;35;-131;-8784
30722;-0.01;0.98;0.20;0.00;37;-130;-8783
30741;-0.01;0.98;0.20;0.00;43;-130;-8780
30759;-0.01;0.98;0.20;0.00;47;-127;-8772
30780;-0.01;0.98;0.20;0.00;49;-127;-8766
30801;-0.01;0.98;0.20;0.00;51;-126;-8757
30819;-0.01;0.98;0.20;0.00;53;-126;-8769
30837;-0.01;0.98;0.20;0.00;55;-129;-8781
30863;-0.01;0.98;0.20;0.00;55;-130;-8789
30882;-0.01;0.98;0.20;0.00;56;-129;-8786
30901;-0.01;0.98;0.20;0.00;57;-128;-8773
30920;-0.01;0.98;0.20;0.00;47;-128;-8768
30941;-0.01;-0.00;0.74;1.96;9228;3072;20736
30962;-0.01;0.98;0.20;0.00;36;-130;-8784
30980;-0.01;0.98;0.20;0.00;38;-127;-8776
31001;-0.01;0.98;0.20;0.00;44;-125;-8764
31021;-0.01;0.98;0.20;0.00;45;-123;-8761
31041;-0.01;0.98;0.20;0.00;46;-126;-8772
31059;-0.01;0.98;0.20;0.00;44;-126;-8779
31079;-0.01;0.98;0.20;0.00;46;-126;-8778
31102;-0.01;0.98;0.20;0.00;49;-127;-8765
31122;-0.01;0.98;0.20;0.00;54;-128;-8756
31142;-0.01;0.98;0.20;0.00;52;-125;-8751
31162;-0.01;0.98;0.20;0.00;49;-124;-8768
31181;-0.01;0.98;0.20;0.00;45;-126;-8787
31201;-0.01;0.98;0.20;0.00;40;-131;-8792
31220;-0.01;0.98;0.20;0.00;41;-130;-8786
31240;-0.01;0.98;0.20;0.00;43;-129;-8765
31259;-0.01;0.98;0.20;0.00;47;-132;-8748
31278;-0.01;0.98;0.20;0.00;40;-130;-8757
31299;-0.01;0.98;0.20;0.00;32;-127;-8769
31318;-0.01;0.98;0.20;0.00;34;-131;-8767
31341;-0.01;0.98;0.20;0.00;43;-127;-8754
31361;-0.01;0.98;0.20;0.00;43;-126;-8760
31381;-0.01;0.98;0.20;0.00;37;-122;-8766
31399;-0.01;0.98;0.20;0.00;36;-126;-8764
31419;-0.01;0.98;0.20;0.00;35;-125;-8771
31440;-0.01;0.98;0.20;0.00;-32394;-19453;27391
31462;-0.01;0.98;0.20;0.00;51;-74;-8774
31480;-0.01;0.98;0.20;0.00;46;-82;-8771
31500;-0.01;0.98;0.20;0.00;38;-116;-8762
31521;-0.01;0.98;0.20;0.00;30;-151;-8758
31541;-0.01;0.98;0.20;0.00;27;-181;-8771
31559;-0.01;0.98;0.20;0.00;29;-168;-8772
31583;-0.01;0.98;0.20;0.00;30;-163;-8765
32611;0.00;0.98;0.18;0.08;-1015;-1318;-1479
32629;0.00;0.98;0.18;0.08;-819;-1629;-2249
32648;0.01;0.98;0.18;0.08;-710;-1713;-2810
32669;0.01;0.98;0.18;0.08;-620;-1651;-3143
32691;0.01;0.98;0.18;0.08;-575;-1378;-3399
32709;0.01;0.98;0.18;0.07;-515;-924;-3805
32727;0.01;0.98;0.18;0.07;-369;-500;-4393
32749;0.01;0.98;0.18;0.07;-82;-301;-5018
32769;0.01;0.98;0.18;0.07;254;-231;-5505
32788;0.02;0.98;0.18;0.07;501;-238;-5792
32806;0.02;0.98;0.18;0.07;662;-320;-5940
32831;0.02;0.98;0.18;0.07;771;-362;-6146
32851;0.02;0.98;0.18;0.07;888;-393;-6488
32870;0.02;0.98;0.18;0.07;975;-349;-6956
32889;0.02;0.98;0.18;0.07;1025;-107;-7535
32911;0.02;0.98;0.18;0.07;1075;205;-7982
32931;0.02;0.98;0.18;0.07;1104;390;-8166
32961;-0.06;0.98;0.18;0.09;-418;-928;1724
32999;-0.06;0.98;0.18;0.09;-493;-52;2496
33019;-0.06;0.98;0.19;0.09;-803;710;2754
33039;-0.05;0.98;0.19;0.09;-1007;1387;1999
33058;-0.04;0.98;0.20;0.08;-782;2168;-376
33077;-0.03;0.98;0.20;0.07;-399;3096;-4257
33101;-0.02;0.98;0.21;0.05;-58;3623;-7474
33122;-0.01;0.98;0.21;0.03;556;3682;-9837
33141;-0.01;0.98;0.20;0.02;1304;3288;-11573
33161;-0.03;0.98;0.19;0.02;2985;3216;-12849
33195;-0.04;0.98;0.19;0.03;3189;1667;-13787
33215;-0.05;0.98;0.18;0.05;3450;789;-11922
33233;-0.05;0.98;0.18;0.05;3741;-103;-9677
33252;-0.05;0.98;0.18;0.05;3796;-1113;-8529
33273;-0.05;0.98;0.18;0.05;3586;-1479;-7839
33294;-0.05;0.98;0.18;0.05;2854;-1419;-7578
33313;-0.05;0.98;0.18;0.04;2056;-1348;-9048
33332;-0.04;0.98;0.18;0.03;1772;-1162;-10994
33356;-0.03;0.98;0.19;0.03;2368;-1575;-12423
33377;-0.03;0.98;0.19;0.03;2643;-1127;-13474
33395;-0.03;0.98;0.19;0.04;1993;-99;-12552
33421;-0.01;0.98;0.19;0.02;272;-779;-8963
33442;-0.01;0.98;0.19;0.02;280;-787;-8819
33462;-0.01;0.98;0.19;0.02;247;-594;-8688
33480;-0.01;0.98;0.19;0.02;270;-380;-8666
33500;-0.00;0.98;0.19;0.02;331;-268;-8678
33521;-0.00;0.98;0.19;0.02;385;-141;-8663
33540;-0.00;0.98;0.19;0.02;431;-58;-8600
33559;-0.00;0.98;0.19;0.02;469;-71;-8682
33578;0.00;0.98;0.19;0.02;487;-14;-8873
33597;0.00;0.98;0.19;0.02;468;113;-8998
33617;0.00;0.98;0.19;0.02;390;294;-9057
33635;0.00;0.98;0.19;0.02;304;466;-9039
33655;0.00;0.98;0.19;0.02;268;452;-8918
33676;0.00;0.98;0.19;0.02;276;305;-8763
33695;0.00;0.98;0.19;0.02;323;120;-8629
33714;0.00;0.98;0.19;0.02;352;-62;-8620
33733;0.00;0.98;0.19;0.02;357;-122;-8795
33754;0.00;0.98;0.19;0.02;324;-68;-9022
33774;0.01;0.98;0.19;0.02;245;55;-9202
33792;0.00;0.98;0.19;0.02;158;236;-9198
33812;0.00;0.98;0.19;0.02;89;339;-8977
33835;0.00;0.98;0.19;0.02;87;291;-8717
33855;0.00;0.98;0.19;0.02;151;112;-8593
33875;0.00;0.98;0.19;0.02;246;-58;-8617
33895;0.00;0.98;0.19;0.02;321;-150;-8729
33920;0.01;0.98;0.19;0.02;197;271;-8843
33940;0.01;0.98;0.19;0.02;199;283;-8859
33960;0.01;0.98;0.19;0.02;204;277;-8819
33980;0.01;0.98;0.19;0.02;205;230;-8743
33999;0.01;0.98;0.19;0.02;212;163;-8681
34019;0.01;0.98;0.19;0.02;214;143;-8668
34038;0.01;0.98;0.19;0.02;202;161;-8675
34058;0.01;0.98;0.19;0.01;183;201;-8735
34078;0.01;0.98;0.19;0.01;162;256;-8860
34095;0.01;0.98;0.19;0.01;164;284;-8981
34115;0.01;0.98;0.19;0.01;179;272;-8971
34134;0.01;0.98;0.19;0.01;172;262;-8872
34154;0.01;0.98;0.19;0.01;185;266;-8752
34173;0.01;0.98;0.19;0.01;227;232;-8735
34193;0.01;0.98;0.19;0.01;270;236;-8833
34212;0.01;0.98;0.19;0.01;282;278;-8878
34233;0.01;0.98;0.19;0.01;246;299;-8820
34252;0.01;0.98;0.19;0.01;212;311;-8732
34272;0.01;0.98;0.19;0.01;199;285;-8692
34291;0.01;0.98;0.19;0.01;218;225;-8718
34311;0.01;0.98;0.19;0.01;254;209;-8734
34334;0.01;0.98;0.19;0.01;265;197;-8708
34354;0.01;0.98;0.19;0.01;255;186;-8672
34372;0.01;0.98;0.19;0.01;232;189;-8678
34391;0.01;0.98;0.19;0.01;205;217;-8763
34421;0.01;0.98;0.19;0.01;160;215;-8903
34440;0.01;0.98;0.19;0.01;130;248;-8769
34457;0.01;0.98;0.19;0.01;145;222;-8701
34478;0.01;0.98;0.19;0.01;107;276;-8586
34499;0.01;0.98;0.19;0.01;113;304;-8587
34517;0.02;0.98;0.19;0.01;144;266;-8728
34536;0.02;0.98;0.19;0.01;174;273;-8823
34556;0.02;0.98;0.19;0.01;165;334;-8828
34580;0.02;0.98;0.19;0.01;143;358;-8775
34598;0.02;0.98;0.19;0.01;149;325;-8735
34618;0.02;0.98;0.19;0.01;160;288;-8762
34638;0.02;0.98;0.19;0.01;156;263;-8803
34658;0.02;0.98;0.19;0.01;153;260;-8815
34676;0.02;0.98;0.19;0.01;130;264;-8835
34696;0.02;0.98;0.19;0.01;119;293;-8904
34717;0.02;0.98;0.19;0.01;128;331;-8973
34736;0.02;0.98;0.19;0.01;106;356;-8944
34755;0.02;0.98;0.19;0.01;93;383;-8899
34774;0.02;0.98;0.19;0.01;83;398;-8760
34795;0.02;0.98;0.19;0.01;62;334;-8675
34814;0.02;0.98;0.19;0.01;69;272;-8669
34837;0.02;0.98;0.19;0.01;103;246;-8708
34856;0.02;0.98;0.19;0.01;102;246;-8713
34876;0.02;0.98;0.19;0.01;91;234;-8724
34895;0.02;0.98;0.19;0.01;106;256;-8745
34921;0.02;0.98;0.19;0.00;-2;332;-8790
34940;0.02;0.98;0.19;0.00;-8;339;-8783
34960;0.02;0.98;0.19;0.00;-11;345;-8768
34979;0.02;0.98;0.19;0.00;-17;354;-8767
34999;0.02;0.98;0.19;0.00;-16;346;-8769
35018;0.02;0.98;0.19;0.00;-11;339;-8767
35039;0.02;0.98;0.19;0.00;-14;337;-8767
35059;0.02;0.98;0.19;0.00;-13;339;-8765
35098;0.02;0.98;0.19;0.00;-2;343;-8762
35119;0.02;0.98;0.19;0.00;-5;342;-8758
35139;0.02;0.98;0.19;0.00;-12;336;-8762
35159;0.02;0.98;0.19;0.00;-21;338;-8758
35179;0.02;0.98;0.19;0.00;-17;332;-8771
35197;0.02;0.98;0.19;0.00;-11;323;-8776
35217;0.02;0.98;0.19;0.00;-11;300;-8771
35237;0.02;0.98;0.19;0.00;-17;276;-8772
35257;0.02;0.98;0.19;0.00;-21;264;-8763
35275;0.02;0.98;0.19;0.00;-17;272;-8765
35295;0.02;0.98;0.19;0.00;-15;277;-8765
35316;0.02;0.98;0.18;0.00;-19;285;-8759
35336;0.02;0.98;0.18;0.00;-20;284;-8760
35356;0.02;0.98;0.18;0.00;-15;274;-8762
35378;0.02;0.98;0.18;0.00;-3;276;-8753
35400;0.01;0.98;0.18;0.00;8;176;-8774
35418;0.01;0.98;0.18;0.00;5;222;-8778
35437;0.01;0.98;0.18;0.00;-5;263;-8769
35458;0.01;0.98;0.18;0.00;-5;238;-8779
35479;0.01;0.98;0.18;0.00;-6;218;-8786
35498;0.01;0.98;0.18;0.00;-10;210;-8779
35517;0.01;0.98;0.18;0.00;-14;188;-8771
35552;0.01;0.98;0.18;0.00;-6;158;-8763
35571;0.01;0.98;0.18;0.00;-1;169;-8767
35588;0.01;0.98;0.18;0.00;3;191;-8755
35607;0.01;0.98;0.18;0.00;4;195;-8749
35632;0.01;0.98;0.18;0.00;2;235;-8758
35652;0.01;0.98;0.18;0.00;2;224;-8766
35669;0.01;0.98;0.18;0.00;-3;203;-8772
35690;0.01;0.98;0.18;0.00;-1;203;-8758
35710;0.01;0.98;0.18;0.00;-2;200;-8744
35730;0.01;0.98;0.18;0.00;-7;167;-8667
35748;0.01;0.98;0.18;0.00;-51;85;-8328
35768;0.00;0.98;0.18;0.00;-157;469;-8355
