t;w;x;y;z;ax;ay;az
1065;0.00;0.04;-1.00;0.00;59;-62;-8709
1083;0.00;0.04;-1.00;0.00;59;-64;-8711
1098;0.00;0.04;-1.00;0.00;61;-64;-8704
1116;0.00;0.04;-1.00;0.00;59;-63;-8704
1133;0.00;0.04;-1.00;0.00;53;-61;-8703
1148;0.00;0.04;-1.00;0.00;53;-61;-8701
1166;0.00;0.04;-1.00;0.00;55;-57;-8702
1184;0.00;0.04;-1.00;0.00;60;-56;-8700
1202;0.00;0.04;-1.00;0.00;56;-55;-8698
1218;0.00;0.04;-1.00;0.00;54;-53;-8698
1235;0.00;0.04;-1.00;0.00;54;-53;-8698
1254;0.00;0.04;-1.00;0.00;57;-56;-8708
1270;0.00;0.04;-1.00;0.00;60;-61;-8705
1291;0.00;0.04;-1.00;0.00;60;-59;-8706
1308;0.00;0.04;-1.00;0.00;58;-61;-8702
1325;0.00;0.04;-1.00;0.00;58;-62;-8704
1342;0.00;0.04;-1.00;0.00;59;-61;-8702
1359;0.00;0.04;-1.00;0.00;56;-60;-8699
1377;0.00;0.04;-1.00;0.00;59;-59;-8699
1394;0.00;0.04;-1.00;0.00;62;-60;-8701
1411;0.00;0.04;-1.00;0.00;59;-60;-8700
1429;0.00;0.04;-1.00;0.00;63;-61;-8691
1445;0.00;0.04;-1.00;0.00;56;-58;-8693
1463;0.00;0.04;-1.00;0.00;57;-55;-8692
1480;0.00;0.04;-1.00;0.00;55;-58;-8686
1498;0.00;0.04;-1.00;0.00;57;-58;-8688
1517;0.00;0.04;-1.00;0.00;60;-58;-8691
1534;0.00;0.04;-1.00;0.00;59;-59;-8694
1553;0.00;0.04;-1.00;0.00;-15182;13971;-8001
1574;0.00;0.04;-1.00;0.00;65;-54;-8705
1591;0.00;0.04;-1.00;0.00;74;-51;-8698
1608;0.00;0.04;-1.00;0.00;71;-52;-8693
1627;0.00;0.04;-1.00;0.00;69;-50;-8692
1644;0.00;0.04;-1.00;0.00;69;-51;-8695
1659;0.00;0.04;-1.00;0.00;66;-53;-8696
1677;0.00;0.04;-1.00;0.00;62;-52;-8696
1695;0.00;0.04;-1.00;0.00;62;-53;-8689
1713;0.00;0.04;-1.00;0.00;63;-54;-8692
1731;0.00;0.04;-1.00;0.00;61;-56;-8697
1749;0.00;0.04;-1.00;0.00;63;-55;-8698
1768;0.00;0.04;-1.00;0.00;66;-53;-8697
1784;0.00;0.04;-1.00;0.00;67;-56;-8700
1800;0.00;0.04;-1.00;0.00;68;-56;-8699
1819;0.00;0.04;-1.00;0.00;65;-53;-8700
1836;0.00;0.04;-1.00;0.00;63;-56;-8694
1853;0.00;0.04;-1.00;0.00;65;-58;-8696
1868;0.00;0.04;-1.00;0.00;65;-56;-8703
1888;0.00;0.04;-1.00;0.00;60;-55;-8704
1905;0.00;0.04;-1.00;0.00;59;-56;-8703
1921;0.00;0.04;-1.00;0.00;63;-58;-8700
1937;0.00;0.04;-1.00;0.00;62;-59;-8700
1960;0.00;0.04;-1.00;0.00;62;-56;-8699
1977;0.00;0.04;-1.00;0.00;63;-55;-8699
1993;0.00;0.04;-1.00;0.00;61;-54;-8699
2011;0.00;0.04;-1.00;0.00;61;-50;-8701
2029;0.00;0.04;-1.00;0.00;61;-52;-8699
2046;0.00;0.04;-1.00;0.00;60;-56;-8691
2062;0.00;0.04;-1.00;0.00;65;-57;-8685
2080;0.00;0.04;-1.00;0.00;67;-57;-8687
2099;0.00;0.04;-1.00;0.00;65;-56;-8696
2115;0.00;0.04;-1.00;0.00;66;-57;-8698
2131;0.00;0.04;-1.00;0.00;63;-58;-8695
2155;0.00;0.04;-1.00;0.00;59;-53;-8687
2173;0.00;0.04;-1.00;0.00;58;-52;-8693
2193;0.00;0.04;-1.00;0.00;60;-49;-8687
2210;0.00;0.04;-1.00;0.00;61;-51;-8692
2228;0.00;0.04;-1.00;0.00;63;-57;-8691
2245;0.00;0.04;-1.00;0.00;63;-61;-8687
2261;0.00;0.04;-1.00;0.00;60;-65;-8683
2280;0.00;0.04;-1.00;0.00;58;-61;-8690
2296;0.00;0.04;-1.00;0.00;59;-56;-8694
2314;0.00;0.04;-1.00;0.00;58;-61;-8697
2331;0.00;0.04;-1.00;0.00;58;-59;-8697
2348;0.00;0.04;-1.00;0.00;62;-61;-8703
2366;0.00;0.04;-1.00;0.00;61;-59;-8692
2383;0.00;0.04;-1.00;0.00;60;-57;-8693
2400;0.00;0.04;-1.00;0.00;59;-61;-8698
2422;0.00;0.04;-1.00;0.00;60;-59;-8697
2438;0.00;0.04;-1.00;0.00;63;-57;-8697
2455;0.00;0.04;-1.00;0.00;60;-56;-8695
2473;0.00;0.04;-1.00;0.00;57;-58;-8692
2491;0.00;0.04;-1.00;0.00;59;-56;-8691
2507;0.00;0.04;-1.00;0.00;61;-54;-8694
2525;0.00;0.04;-1.00;0.00;58;-52;-8698
2543;0.00;0.04;-1.00;0.00;59;-50;-8695
2559;0.00;0.04;-1.00;0.00;56;-47;-8693
2576;0.00;0.04;-1.00;0.00;61;-48;-8696
2593;0.00;0.05;-1.00;0.00;63;-49;-8699
2612;0.00;0.05;-1.00;0.00;64;-52;-8699
2632;0.00;0.05;-1.00;0.00;61;-54;-8700
2647;0.00;0.04;-1.00;0.00;60;-53;-8699
2667;0.00;0.05;-1.00;0.00;60;-57;-8697
2685;0.00;0.05;-1.00;0.00;61;-57;-8696
2703;0.00;0.05;-1.00;0.00;61;-56;-8699
2724;0.00;0.05;-1.00;0.00;61;-64;-8701
2772;0.00;0.05;-1.00;0.00;62;-64;-8702
2790;0.00;0.05;-1.00;0.00;61;-63;-8694
2805;0.00;0.05;-1.00;0.00;60;-61;-8693
2822;0.00;0.05;-1.00;0.00;63;-61;-8694
2840;0.00;0.05;-1.00;0.00;63;-62;-8689
2858;0.00;0.05;-1.00;0.00;62;-65;-8684
2875;0.00;0.05;-1.00;0.00;62;-67;-8690
2895;0.00;0.05;-1.00;0.00;64;-70;-8690
2914;0.00;0.05;-1.00;0.00;65;-63;-8690
2931;0.00;0.05;-1.00;0.00;70;-59;-8692
2946;0.00;0.05;-1.00;0.00;70;-59;-8695
2964;0.00;0.05;-1.00;0.00;66;-59;-8695
2982;0.00;0.05;-1.00;0.00;63;-53;-8696
3000;0.00;0.05;-1.00;0.00;61;-53;-8697
3016;0.00;0.05;-1.00;0.00;67;-55;-8700
3034;0.00;0.05;-1.00;0.00;66;-60;-8698
3052;0.00;0.05;-1.00;0.00;59;-61;-8693
3069;0.00;0.05;-1.00;0.00;60;-61;-8701
3086;0.00;0.05;-1.00;0.00;62;-62;-8705
3105;0.00;0.05;-1.00;0.00;57;-59;-8710
3132;0.00;0.05;-1.00;0.00;57;-57;-8705
3148;0.00;0.05;-1.00;0.00;58;-56;-8700
3166;0.00;0.05;-1.00;0.00;61;-55;-8696
3183;0.00;0.05;-1.00;0.00;60;-53;-8693
3200;0.00;0.05;-1.00;0.00;60;-52;-8685
3218;0.00;0.05;-1.00;0.00;58;-55;-8688
3244;0.00;0.04;-1.00;0.00;60;-49;-8703
3262;0.00;0.04;-1.00;0.00;60;-50;-8705
3279;0.00;0.04;-1.00;0.00;61;-51;-8707
3296;0.00;0.04;-1.00;0.00;58;-53;-8699
3313;0.00;0.04;-1.00;0.00;60;-53;-8693
3330;0.00;0.04;-1.00;0.00;60;-54;-8690
3348;0.00;0.04;-1.00;0.00;60;-55;-8682
3369;0.00;0.04;-1.00;0.00;60;-57;-8676
3387;0.00;0.04;-1.00;0.00;59;-57;-8679
3402;0.00;0.04;-1.00;0.00;61;-58;-8682
3420;0.00;0.04;-1.00;0.00;60;-59;-8686
3439;0.00;0.04;-1.00;0.00;54;-59;-8688
3456;0.00;0.04;-1.00;0.00;52;-56;-8689
3472;0.00;0.04;-1.00;0.00;54;-55;-8695
3489;0.00;0.04;-1.00;0.00;52;-56;-8692
3508;0.00;0.04;-1.00;0.00;55;-56;-8692
3525;0.00;0.04;-1.00;0.00;61;-52;-8696
3541;0.00;0.04;-1.00;0.00;57;-51;-8698
3559;0.00;0.04;-1.00;0.00;57;-53;-8701
3577;0.00;0.04;-1.00;0.00;57;-53;-8694
3598;0.00;0.04;-1.00;0.00;51;-52;-8692
3613;0.00;0.04;-1.00;0.00;52;-54;-8698
3633;0.00;0.04;-1.00;0.00;56;-58;-8700
3650;0.00;0.04;-1.00;0.00;59;-60;-8702
3666;0.00;0.04;-1.00;0.00;57;-64;-8701
3682;0.00;0.04;-1.00;0.00;53;-64;-8704
3701;0.00;0.04;-1.00;0.00;52;-68;-8699
3720;0.00;0.04;-1.00;0.00;56;-71;-8696
3735;0.00;0.04;-1.00;0.00;60;-65;-8692
3751;0.00;0.04;-1.00;0.00;59;-66;-8699
3770;0.00;0.04;-1.00;0.00;60;-64;-8701
3788;0.00;0.04;-1.00;0.00;61;-61;-8704
3814;0.00;0.04;-1.00;0.00;59;-55;-8702
3831;0.00;0.04;-1.00;0.00;59;-54;-8697
4853;0.00;0.04;-1.00;0.00;60;-61;-8706
4871;0.00;0.04;-1.00;0.00;67;-59;-8702
4887;0.00;0.04;-1.00;0.00;70;-55;-8699
4903;0.00;0.04;-1.00;0.00;74;-55;-8702
4921;0.00;0.04;-1.00;0.00;74;-56;-8700
4938;0.00;0.04;-1.00;0.00;71;-55;-8701
4956;0.00;0.04;-1.00;0.00;66;-54;-8696
4972;0.00;0.04;-1.00;0.00;67;-54;-8692
4989;0.00;0.04;-1.00;0.00;73;-56;-8693
5007;0.00;0.04;-1.00;0.00;70;-60;-8697
5024;0.00;0.04;-1.00;0.00;67;-59;-8702
5044;0.00;0.04;-1.00;0.00;66;-59;-8703
5061;0.00;0.04;-1.00;0.00;70;-57;-8703
5079;0.00;0.04;-1.00;0.00;73;-53;-8696
5097;0.00;0.04;-1.00;0.00;73;-54;-8694
5112;0.00;0.04;-1.00;0.00;72;-57;-8692
5130;0.00;0.04;-1.00;0.00;69;-58;-8688
5149;0.00;0.04;-1.00;0.00;66;-58;-8692
5165;0.00;0.04;-1.00;0.00;64;-59;-8687
5182;0.00;0.04;-1.00;0.00;59;-60;-8690
5199;0.00;0.04;-1.00;0.00;57;-59;-8695
5218;0.00;0.04;-1.00;0.00;57;-56;-8696
5235;0.00;0.04;-1.00;0.00;58;-57;-8689
5250;0.00;0.04;-1.00;0.00;56;-60;-8697
5272;0.00;0.04;-1.00;0.00;55;-58;-8691
5290;0.00;0.04;-1.00;0.00;56;-54;-8691
5306;0.00;0.04;-1.00;0.00;56;-52;-8691
5322;0.00;0.04;-1.00;0.00;59;-52;-8685
5341;0.00;0.04;-1.00;0.00;59;-50;-8691
5359;0.00;0.04;-1.00;0.00;59;-49;-8700
5376;0.00;0.04;-1.00;0.00;57;-52;-8705
5403;0.00;0.04;-1.00;0.00;59;-48;-8692
5454;0.00;0.04;-1.00;0.00;59;-44;-8692
5471;0.00;0.04;-1.00;0.00;57;-44;-8690
5487;0.00;0.04;-1.00;0.00;55;-44;-8693
5502;0.00;0.04;-1.00;0.00;58;-46;-8696
5522;0.00;0.04;-1.00;0.00;56;-48;-8692
5542;0.00;0.04;-1.00;0.00;59;-51;-8697
5559;0.00;0.04;-1.00;0.00;61;-51;-8694
5575;0.00;0.04;-1.00;0.00;57;-50;-8693
5595;0.00;0.04;-1.00;0.00;60;-50;-8693
5611;0.00;0.04;-1.00;0.00;61;-52;-8697
5627;0.00;0.04;-1.00;0.00;60;-56;-8697
5645;0.00;0.04;-1.00;0.00;61;-59;-8699
5663;0.00;0.04;-1.00;0.00;64;-60;-8699
5680;0.00;0.04;-1.00;0.00;61;-59;-8692
5696;0.00;0.04;-1.00;0.00;58;-58;-8690
5713;0.00;0.04;-1.00;0.00;56;-56;-8685
5732;0.00;0.04;-1.00;0.00;59;-58;-8683
5749;0.00;0.04;-1.00;0.00;63;-54;-8684
5769;0.00;0.04;-1.00;0.00;67;-52;-8688
5786;0.00;0.04;-1.00;0.00;66;-54;-8684
5803;0.00;0.04;-1.00;0.00;65;-52;-8689
5821;0.00;0.04;-1.00;0.00;65;-54;-8689
5838;0.00;0.04;-1.00;0.00;69;-54;-8688
5855;0.00;0.04;-1.00;0.00;65;-52;-8693
5872;0.00;0.04;-1.00;0.00;65;-51;-8701
5889;0.00;0.04;-1.00;0.00;70;-51;-8699
5907;0.00;0.04;-1.00;0.00;66;-52;-8704
5932;0.00;0.04;-1.00;0.00;61;-55;-8679
5950;0.00;0.04;-1.00;0.00;65;-55;-8681
5967;0.00;0.04;-1.00;0.00;66;-52;-8682
5989;0.00;0.04;-1.00;0.00;69;-53;-8684
6004;0.00;0.04;-1.00;0.00;70;-52;-8688
6022;0.00;0.04;-1.00;0.00;72;-50;-8685
6040;0.00;0.04;-1.00;0.00;70;-53;-8686
6057;0.00;0.04;-1.00;0.00;69;-53;-8693
6074;0.00;0.04;-1.00;0.00;64;-51;-8689
6091;0.00;0.04;-1.00;0.00;62;-53;-8687
6110;0.00;0.04;-1.00;0.00;56;-55;-8692
6126;0.00;0.04;-1.00;0.00;60;-55;-8693
6142;0.00;0.04;-1.00;0.00;62;-53;-8691
6160;0.00;0.04;-1.00;0.00;67;-51;-8684
6178;0.00;0.04;-1.00;0.00;64;-54;-8678
6196;0.00;0.04;-1.00;0.00;65;-52;-8678
6214;0.00;0.04;-1.00;0.00;68;-53;-8681
6232;0.00;0.04;-1.00;0.00;69;-50;-8684
6251;0.00;0.04;-1.00;0.00;69;-52;-8692
6268;0.00;0.04;-1.00;0.00;60;-49;-8692
6285;0.00;0.04;-1.00;0.00;62;-49;-8691
6308;0.00;0.04;-1.00;0.00;59;-53;-8690
6326;0.00;0.04;-1.00;0.00;59;-53;-8693
6341;0.00;0.04;-1.00;0.00;59;-50;-8697
6357;0.00;0.04;-1.00;0.00;61;-52;-8699
6376;0.00;0.04;-1.00;0.00;60;-49;-8691
6394;0.00;0.04;-1.00;0.00;56;-49;-8698
6410;0.00;0.04;-1.00;0.00;53;-50;-8708
6426;0.00;0.04;-1.00;0.00;60;-49;-8708
6449;0.00;0.04;-1.00;0.00;62;-44;-8703
6466;0.00;0.04;-1.00;0.00;61;-46;-8698
6481;0.00;0.28;-0.55;-1.89;-16368;53;-1
6503;0.00;0.04;-1.00;0.00;55;-54;-8701
6521;0.00;0.04;-1.00;0.00;52;-52;-8693
6538;0.00;0.04;-1.00;0.00;54;-53;-8688
6554;0.00;0.04;-1.00;0.00;56;-55;-8686
6571;0.00;0.04;-1.00;0.00;59;-55;-8688
6590;0.00;0.04;-1.00;0.00;60;-52;-8689
6606;0.00;0.04;-1.00;0.00;63;-52;-8694
6623;0.00;0.04;-1.00;0.00;63;-53;-8694
6640;0.00;0.04;-1.00;0.00;61;-52;-8699
6658;0.00;0.04;-1.00;0.00;65;-49;-8696
6678;0.00;0.04;-1.00;0.00;64;-50;-8693
6695;0.00;0.04;-1.00;0.00;63;-55;-8692
6713;0.00;0.04;-1.00;0.00;57;-56;-8695
6730;0.00;0.04;-1.00;0.00;55;-59;-8697
6748;0.00;0.04;-1.00;0.00;58;-59;-8700
6765;0.00;0.04;-1.00;0.00;55;-56;-8701
6782;0.00;0.04;-1.00;0.00;55;-58;-8699
6800;0.00;0.04;-1.00;0.00;55;-59;-8699
6816;0.00;0.04;-1.00;0.00;57;-58;-8697
6834;0.00;0.04;-1.00;0.00;55;-53;-8705
6851;0.00;0.04;-1.00;0.00;56;-50;-8702
6868;0.00;0.04;-1.00;0.00;57;-53;-8697
6886;0.00;0.04;-1.00;0.00;57;-56;-8692
6907;0.00;0.04;-1.00;0.00;58;-57;-8690
6923;0.00;0.04;-1.00;0.00;58;-59;-8690
6940;0.00;0.04;-1.00;0.00;60;-58;-8698
6960;0.00;0.04;-1.00;0.00;62;-61;-8700
6976;0.00;0.04;-1.00;0.00;64;-62;-8701
6992;0.00;0.04;-1.00;0.00;66;-57;-8701
7010;0.00;0.04;-1.00;0.00;67;-53;-8698
7028;0.00;0.04;-1.00;0.00;65;-52;-8697
7046;0.00;0.04;-1.00;0.00;65;-54;-8701
7072;0.00;0.04;-1.00;0.00;63;-54;-8704
7091;0.00;0.04;-1.00;0.00;64;-55;-8705
7141;0.00;0.04;-1.00;0.00;65;-54;-8704
7160;0.00;0.04;-1.00;0.00;60;-56;-8705
7176;0.00;0.04;-1.00;0.00;59;-54;-8707
7195;0.00;0.04;-1.00;0.00;58;-52;-8704
7213;0.00;0.04;-1.00;0.00;62;-53;-8704
7229;0.00;0.04;-1.00;0.00;58;-53;-8699
7245;0.00;0.04;-1.00;0.00;58;-56;-8696
7264;0.00;0.04;-1.00;0.00;61;-56;-8698
7282;0.00;0.04;-1.00;0.00;58;-57;-8697
7298;0.00;0.04;-1.00;0.00;61;-58;-8693
7315;0.00;0.04;-1.00;0.00;63;-59;-8686
7333;0.00;0.04;-1.00;0.00;63;-55;-8680
7352;0.00;0.04;-1.00;0.00;61;-53;-8686
7368;0.00;0.04;-1.00;0.00;61;-56;-8691
7388;0.00;0.04;-1.00;0.00;61;-56;-8692
7407;0.00;0.04;-1.00;0.00;58;-52;-8693
7423;0.00;0.04;-1.00;0.00;56;-48;-8698
7440;0.00;0.04;-1.00;0.00;51;-48;-8697
7457;0.00;0.04;-1.00;0.00;55;-54;-8700
7476;0.00;0.04;-1.00;0.00;54;-55;-8693
7493;0.00;0.04;-1.00;0.00;55;-58;-8692
7509;0.00;0.04;-1.00;0.00;53;-58;-8692
7527;0.00;0.04;-1.00;0.00;59;-59;-8696
7545;0.00;0.04;-1.00;0.00;59;-56;-8697
7563;0.00;0.04;-1.00;0.00;55;-57;-8690
7578;0.00;0.04;-1.00;0.00;56;-58;-8694
7603;0.00;0.04;-1.00;0.00;62;-54;-8683
7624;0.00;0.04;-1.00;0.00;61;-52;-8687
7640;0.00;0.04;-1.00;0.00;61;-53;-8689
7658;0.00;0.04;-1.00;0.00;61;-56;-8692
8682;0.00;0.04;-1.00;0.00;63;-51;-8688
8699;0.00;0.04;-1.00;0.00;63;-51;-8691
8717;0.00;0.04;-1.00;0.00;64;-51;-8692
8734;0.00;0.04;-1.00;0.00;58;-54;-8697
8752;0.00;0.04;-1.00;0.00;58;-56;-8696
8769;0.00;0.04;-1.00;0.00;57;-56;-8699
8786;0.00;0.04;-1.00;0.00;60;-56;-8696
8804;0.00;0.04;-1.00;0.00;62;-53;-8696
8820;0.00;0.04;-1.00;0.00;62;-52;-8694
8838;0.00;0.04;-1.00;0.00;65;-55;-8692
8859;0.00;0.04;-1.00;0.00;70;-53;-8689
8876;0.00;0.04;-1.00;0.00;65;-55;-8692
8893;0.00;0.04;-1.00;0.00;60;-52;-8695
8910;0.00;0.04;-1.00;0.00;60;-49;-8693
8929;0.00;0.04;-1.00;0.00;60;-51;-8693
8946;0.00;0.04;-1.00;0.00;61;-56;-8693
8961;0.00;0.04;-1.00;0.00;58;-57;-8695
8979;0.00;0.04;-1.00;0.00;61;-58;-8697
8998;0.00;0.04;-1.00;0.00;59;-57;-8701
9015;0.00;0.04;-1.00;0.00;57;-56;-8701
9031;0.00;0.04;-1.00;0.00;59;-54;-8695
9048;0.00;0.04;-1.00;0.00;62;-56;-8695
9067;0.00;0.04;-1.00;0.00;64;-63;-8697
9087;0.00;0.04;-1.00;0.00;57;-59;-8704
9103;0.00;0.04;-1.00;0.00;54;-59;-8694
9122;0.00;0.04;-1.00;0.00;55;-60;-8683
9141;0.00;0.04;-1.00;0.00;56;-60;-8686
9157;0.00;0.04;-1.00;0.00;56;-59;-8687
9182;0.00;0.04;-1.00;0.00;59;-53;-8683
9201;0.00;0.04;-1.00;0.00;58;-51;-8683
9219;0.00;0.04;-1.00;0.00;59;-54;-8688
9235;0.00;0.04;-1.00;0.00;59;-59;-8689
9251;0.00;0.04;-1.00;0.00;66;-59;-8692
9270;0.00;0.04;-1.00;0.00;67;-60;-8694
9288;0.00;0.04;-1.00;0.00;66;-59;-8693
9308;0.00;0.04;-1.00;0.00;62;-59;-8694
9325;0.00;0.04;-1.00;0.00;60;-57;-8692
9343;0.00;0.04;-1.00;0.00;54;-59;-8687
9361;0.00;0.04;-1.00;0.00;53;-60;-8689
9376;0.00;0.04;-1.00;0.00;54;-58;-8680
9394;0.00;0.04;-1.00;0.00;55;-56;-8684
9412;0.00;0.04;-1.00;0.00;59;-55;-8689
9429;0.00;0.04;-1.00;0.00;59;-54;-8689
9447;0.00;0.04;-1.00;0.00;62;-54;-8687
9465;0.00;0.04;-1.00;0.00;59;-58;-8693
9488;0.00;0.04;-1.00;0.00;60;-60;-8695
9504;0.00;0.04;-1.00;0.00;61;-57;-8694
9521;0.00;0.04;-1.00;0.00;63;-54;-8697
9541;0.00;0.04;-1.00;0.00;63;-54;-8703
9558;0.00;0.04;-1.00;0.00;62;-54;-8704
9576;0.00;0.04;-1.00;0.00;58;-55;-8707
9593;0.00;0.04;-1.00;0.00;58;-55;-8709
9611;0.00;0.04;-1.00;0.00;56;-56;-8700
9628;0.00;0.04;-1.00;0.00;57;-56;-8699
9644;0.00;0.04;-1.00;0.00;56;-59;-8703
9662;0.00;0.04;-1.00;0.00;61;-63;-8699
9679;0.00;0.04;-1.00;0.00;64;-58;-8694
9697;0.00;0.04;-1.00;0.00;64;-56;-8704
9713;0.00;0.04;-1.00;0.00;62;-59;-8700
9741;0.00;0.04;-1.00;0.00;60;-55;-8692
9758;0.00;0.04;-1.00;0.00;63;-51;-8694
9781;0.00;0.04;-1.00;0.00;65;-54;-8688
9833;0.00;0.04;-1.00;0.00;61;-60;-8689
9848;0.00;0.04;-1.00;0.00;61;-61;-8702
9865;0.00;0.04;-1.00;0.00;61;-58;-8701
9882;0.00;0.04;-1.00;0.00;64;-55;-8701
9900;0.00;0.04;-1.00;0.00;62;-60;-8701
9917;0.00;0.04;-1.00;0.00;60;-59;-8696
9933;0.00;0.04;-1.00;0.00;55;-58;-8696
9951;0.00;0.04;-1.00;0.00;56;-57;-8696
9969;0.00;0.04;-1.00;0.00;56;-58;-8694
9986;0.00;0.04;-1.00;0.00;54;-60;-8696
10002;0.00;0.04;-1.00;0.00;54;-60;-8697
10019;0.00;0.04;-1.00;0.00;59;-60;-8703
10042;0.00;0.04;-1.00;0.00;61;-63;-8698
10058;0.00;0.04;-1.00;0.00;58;-64;-8702
10074;0.00;0.04;-1.00;0.00;55;-63;-8699
10092;0.00;0.04;-1.00;0.00;57;-58;-8698
10110;0.00;0.04;-1.00;0.00;60;-58;-8699
10127;0.00;0.04;-1.00;0.00;59;-56;-8702
10143;0.00;0.04;-1.00;0.00;64;-59;-8699
10162;0.00;0.04;-1.00;0.00;64;-59;-8701
10180;0.00;0.04;-1.00;0.00;63;-59;-8697
10195;0.00;0.04;-1.00;0.00;60;-58;-8701
10212;0.00;0.04;-1.00;0.00;55;-60;-8703
10230;0.00;0.04;-1.00;0.00;51;-60;-8704
10261;0.00;0.04;-1.00;0.00;59;-48;-8691
10277;0.00;0.04;-1.00;0.00;59;-48;-8689
10295;0.00;0.04;-1.00;0.00;58;-49;-8690
10313;0.00;0.04;-1.00;0.00;63;-51;-8696
10330;0.00;0.04;-1.00;0.00;60;-54;-8700
10346;0.00;0.04;-1.00;0.00;57;-56;-8702
10363;0.00;0.04;-1.00;0.00;54;-55;-8705
10382;0.00;0.04;-1.00;0.00;51;-52;-8705
10399;0.00;0.04;-1.00;0.00;51;-55;-8696
10415;0.00;0.04;-1.00;0.00;49;-56;-8691
10432;0.00;0.04;-1.00;0.00;52;-56;-8687
10450;0.00;0.04;-1.00;0.00;55;-55;-8686
10468;0.00;0.04;-1.00;0.00;58;-56;-8687
10488;0.00;0.04;-1.00;0.00;62;-54;-8686
10505;0.00;0.04;-1.00;0.00;61;-57;-8682
10522;0.00;0.04;-1.00;0.00;62;-51;-8686
10539;0.00;0.04;-1.00;0.00;63;-52;-8688
10557;0.00;0.04;-1.00;0.00;60;-52;-8685
10574;0.00;0.04;-1.00;0.00;66;-50;-8684
10592;0.00;0.04;-1.00;0.00;60;-57;-8684
10608;0.00;0.04;-1.00;0.00;59;-59;-8685
10626;0.00;0.04;-1.00;0.00;60;-60;-8692
10643;0.00;0.04;-1.00;0.00;55;-58;-8695
10660;0.00;0.04;-1.00;0.00;51;-56;-8698
10678;0.00;0.04;-1.00;0.00;46;-55;-8697
10699;0.00;0.04;-1.00;0.00;51;-53;-8701
10715;0.00;0.04;-1.00;0.00;54;-56;-8696
10732;0.00;0.04;-1.00;0.00;54;-58;-8692
10750;0.00;0.04;-1.00;0.00;52;-57;-8688
10768;0.00;0.04;-1.00;0.00;52;-60;-8692
10784;0.00;0.04;-1.00;0.00;55;-57;-8696
10802;0.00;0.04;-1.00;0.00;55;-55;-8695
10820;0.00;0.00;0.88;-0.89;-23360;23296;-6401
10842;0.00;0.04;-1.00;0.00;55;-54;-8690
10857;0.00;0.04;-1.00;0.00;55;-54;-8692
10874;0.00;0.04;-1.00;0.00;51;-58;-8696
10893;0.00;0.04;-1.00;0.00;50;-56;-8697
10910;0.00;0.04;-1.00;0.00;52;-58;-8700
10929;0.00;0.04;-1.00;0.00;54;-62;-8698
10948;0.00;0.04;-1.00;0.00;56;-56;-8693
10966;0.00;0.04;-1.00;0.00;58;-54;-8686
10982;0.00;0.04;-1.00;0.00;58;-51;-8683
10998;0.00;0.04;-1.00;0.00;58;-50;-8689
11017;0.00;0.04;-1.00;0.00;56;-50;-8690
11035;0.00;0.04;-1.00;0.00;61;-49;-8689
11050;0.00;0.04;-1.00;0.00;65;-52;-8688
11067;0.00;0.04;-1.00;0.00;67;-50;-8692
11085;0.00;0.04;-1.00;0.00;61;-53;-8693
11104;0.00;0.04;-1.00;0.00;58;-53;-8691
11120;0.00;0.04;-1.00;0.00;58;-56;-8690
11139;0.00;0.04;-1.00;0.00;59;-50;-8690
11158;0.00;0.04;-1.00;0.00;61;-50;-8692
11175;0.00;0.04;-1.00;0.00;55;-48;-8694
11192;0.00;0.04;-1.00;0.00;55;-50;-8697
11209;0.00;0.04;-1.00;0.00;51;-52;-8701
11228;0.00;0.04;-1.00;0.00;49;-55;-8699
11244;0.00;0.04;-1.00;0.00;51;-53;-8701
11260;0.00;0.04;-1.00;0.00;50;-51;-8693
11278;0.00;0.04;-1.00;0.00;44;-54;-8696
11296;0.00;0.04;-1.00;0.00;50;-58;-8696
11314;0.00;0.04;-1.00;0.00;52;-57;-8697
11329;0.00;0.04;-1.00;0.00;55;-55;-8693
11346;0.00;0.04;-1.00;0.00;60;-53;-8691
11368;0.00;0.04;-1.00;0.00;62;-53;-8691
11385;0.00;0.04;-1.00;0.00;66;-52;-8689
11410;0.00;0.04;-1.00;0.00;52;-47;-8693
11427;0.00;0.04;-1.00;0.00;52;-51;-8686
11447;0.00;0.04;-1.00;0.00;54;-54;-8684
11464;0.00;0.04;-1.00;0.00;55;-53;-8688
12530;0.00;0.04;-1.00;0.00;58;-60;-8706
12545;0.00;0.04;-1.00;0.00;59;-56;-8694
12564;0.00;0.04;-1.00;0.00;58;-52;-8694
12580;0.00;0.04;-1.00;0.00;59;-54;-8697
12598;0.00;0.04;-1.00;0.00;60;-56;-8708
12615;0.00;0.04;-1.00;0.00;62;-56;-8711
12636;0.00;0.04;-1.00;0.00;60;-57;-8702
12654;0.00;0.04;-1.00;0.00;58;-55;-8705
12672;0.00;0.04;-1.00;0.00;59;-50;-8704
12690;0.00;0.04;-1.00;0.00;63;-51;-8701
12711;0.00;0.04;-1.00;0.00;61;-49;-8697
12729;0.00;0.04;-1.00;0.00;58;-51;-8697
12746;0.00;0.04;-1.00;0.00;53;-51;-8695
12762;0.00;0.04;-1.00;0.00;52;-48;-8700
12779;0.00;0.04;-1.00;0.00;54;-52;-8695
12798;0.00;0.04;-1.00;0.00;54;-52;-8691
12815;0.00;0.04;-1.00;0.00;58;-51;-8696
12831;0.00;0.04;-1.00;0.00;55;-53;-8696
12849;0.00;0.04;-1.00;0.00;53;-54;-8694
12871;0.00;0.04;-1.00;0.00;50;-54;-8695
12887;0.00;0.04;-1.00;0.00;50;-56;-8696
12903;0.00;0.04;-1.00;0.00;53;-56;-8699
12930;0.00;0.04;-1.00;0.00;50;-58;-8696
12948;0.00;0.04;-1.00;0.00;50;-57;-8707
12964;0.00;0.04;-1.00;0.00;51;-57;-8707
12981;0.00;0.04;-1.00;0.00;48;-57;-8700
12999;0.00;0.04;-1.00;0.00;48;-56;-8702
13018;0.00;0.04;-1.00;0.00;50;-54;-8703
13034;0.00;0.04;-1.00;0.00;51;-54;-8702
13049;0.00;0.04;-1.00;0.00;55;-46;-8706
13069;0.00;0.04;-1.00;0.00;51;-48;-8709
13089;0.00;0.04;-1.00;0.00;49;-51;-8712
13106;0.00;0.04;-1.00;0.00;54;-52;-8711
13123;0.00;0.04;-1.00;0.00;58;-55;-8702
13141;0.00;0.04;-1.00;0.00;55;-58;-8693
13159;0.00;0.04;-1.00;0.00;57;-62;-8688
13175;0.00;0.04;-1.00;0.00;62;-61;-8694
13193;0.00;0.04;-1.00;0.00;65;-58;-8692
13211;0.00;0.04;-1.00;0.00;65;-56;-8684
13228;0.00;0.04;-1.00;0.00;66;-55;-8684
13244;0.00;0.04;-1.00;0.00;65;-57;-8692
13261;0.00;0.04;-1.00;0.00;66;-60;-8693
13280;0.00;0.04;-1.00;0.00;58;-55;-8698
13297;0.00;0.04;-1.00;0.00;59;-55;-8701
13318;0.00;0.04;-1.00;0.00;60;-53;-8696
13335;0.00;0.04;-1.00;0.00;60;-52;-8694
13352;0.00;0.04;-1.00;0.00;57;-53;-8690
13370;0.00;0.04;-1.00;0.00;60;-54;-8691
13387;0.00;0.04;-1.00;0.00;61;-54;-8688
13404;0.00;0.04;-1.00;0.00;62;-55;-8691
13422;0.00;0.04;-1.00;0.00;62;-53;-8695
13438;0.00;0.04;-1.00;0.00;59;-55;-8701
13456;0.00;0.04;-1.00;0.00;62;-56;-8702
13473;0.00;0.04;-1.00;0.00;63;-60;-8704
13500;0.00;0.04;-1.00;0.00;57;-52;-8696
13517;0.00;0.04;-1.00;0.00;61;-52;-8690
13539;0.00;0.04;-1.00;0.00;62;-53;-8691
13555;0.00;0.04;-1.00;0.00;59;-54;-8685
13573;0.00;0.04;-1.00;0.00;59;-55;-8688
13591;0.00;0.04;-1.00;0.00;59;-56;-8684
13608;0.00;0.04;-1.00;0.00;59;-53;-8686
13624;0.00;0.04;-1.00;0.00;59;-56;-8687
13641;0.00;0.04;-1.00;0.00;60;-56;-8693
13660;0.00;0.04;-1.00;0.00;61;-55;-8692
13677;0.00;0.04;-1.00;0.00;57;-58;-8692
13693;0.00;0.04;-1.00;0.00;55;-57;-8694
13711;0.00;0.04;-1.00;0.00;55;-57;-8701
13729;0.00;0.04;-1.00;0.00;59;-57;-8705
13747;0.00;0.04;-1.00;0.00;61;-55;-8697
13760;0.00;0.04;-1.00;0.00;62;-53;-8697
13777;0.00;0.04;-1.00;0.00;64;-56;-8697
13796;0.00;0.04;-1.00;0.00;62;-55;-8698
13813;0.00;0.04;-1.00;0.00;65;-57;-8703
13830;0.00;0.04;-1.00;0.00;62;-59;-8699
13847;0.00;0.04;-1.00;0.00;61;-62;-8691
13865;0.00;0.04;-1.00;0.00;65;-62;-8690
13883;0.00;0.04;-1.00;0.00;59;-59;-8690
13899;0.00;0.04;-1.00;0.00;58;-57;-8692
13917;0.00;0.04;-1.00;0.00;59;-56;-8693
13935;0.00;0.04;-1.00;0.00;60;-57;-8690
13952;0.00;0.04;-1.00;0.00;63;-54;-8693
13971;0.00;0.04;-1.00;0.00;63;-54;-8693
13989;0.00;0.04;-1.00;0.00;63;-54;-8695
14008;0.00;0.04;-1.00;0.00;63;-51;-8695
14024;0.00;0.04;-1.00;0.00;66;-53;-8691
14040;0.00;0.04;-1.00;0.00;65;-51;-8692
14069;0.00;0.04;-1.00;0.00;58;-50;-8701
14088;0.00;0.04;-1.00;0.00;56;-53;-8699
14103;0.00;0.04;-1.00;0.00;59;-53;-8700
14119;0.00;0.04;-1.00;0.00;62;-54;-8699
14138;0.00;0.04;-1.00;0.00;57;-56;-8698
14156;0.00;0.04;-1.00;0.00;58;-56;-8698
14174;0.00;0.04;-1.00;0.00;61;-57;-8691
14238;0.00;0.04;-1.00;0.00;58;-57;-8692
14256;0.00;0.04;-1.00;0.00;58;-58;-8695
14273;0.00;0.04;-1.00;0.00;62;-52;-8692
14288;0.00;0.04;-1.00;0.00;61;-55;-8684
14306;0.00;0.04;-1.00;0.00;55;-60;-8687
14324;0.00;0.04;-1.00;0.00;56;-56;-8688
14342;0.00;0.04;-1.00;0.00;57;-55;-8688
14357;0.00;0.04;-1.00;0.00;59;-53;-8687
14374;0.00;0.04;-1.00;0.00;60;-50;-8687
14394;0.00;0.04;-1.00;0.00;55;-50;-8694
14410;0.00;0.04;-1.00;0.00;55;-49;-8695
14427;0.00;0.04;-1.00;0.00;54;-50;-8699
14444;0.00;0.04;-1.00;0.00;53;-49;-8698
14465;0.00;0.04;-1.00;0.00;54;-52;-8694
14482;0.00;0.04;-1.00;0.00;58;-52;-8701
14499;0.00;0.04;-1.00;0.00;57;-56;-8702
14517;0.00;0.04;-1.00;0.00;59;-57;-8693
14534;0.00;0.04;-1.00;0.00;61;-61;-8699
14551;0.00;0.04;-1.00;0.00;58;-56;-8701
14579;0.00;0.04;-1.00;0.00;56;-54;-8698
14597;0.00;0.04;-1.00;0.00;55;-56;-8699
14614;0.00;0.04;-1.00;0.00;57;-55;-8695
14630;0.00;0.04;-1.00;0.00;61;-55;-8698
14648;0.00;0.04;-1.00;0.00;63;-54;-8698
14665;0.00;0.04;-1.00;0.00;60;-53;-8701
14686;0.00;0.04;-1.00;0.00;63;-53;-8700
14704;0.00;0.04;-1.00;0.00;63;-52;-8699
14721;0.00;0.04;-1.00;0.00;62;-52;-8696
14737;0.00;0.04;-1.00;0.00;65;-55;-8700
14754;0.00;0.04;-1.00;0.00;65;-56;-8699
14773;0.00;0.04;-1.00;0.00;68;-58;-8702
14790;0.00;0.04;-1.00;0.00;70;-56;-8697
14806;0.00;0.04;-1.00;0.00;65;-57;-8702
14823;0.00;0.04;-1.00;0.00;61;-57;-8704
14842;0.00;0.04;-1.00;0.00;63;-55;-8704
14861;0.00;0.04;-1.00;0.00;64;-58;-8699
14877;0.00;0.04;-1.00;0.00;63;-56;-8697
14901;0.00;0.04;-1.00;0.00;62;-54;-8695
14922;0.00;0.04;-1.00;0.00;64;-57;-8699
14939;0.00;0.04;-1.00;0.00;63;-52;-8696
14954;0.00;0.04;-1.00;0.00;59;-51;-8692
14973;0.00;0.04;-1.00;0.00;62;-52;-8694
14992;0.00;0.04;-1.00;0.00;59;-55;-8689
15007;0.00;0.04;-1.00;0.00;58;-59;-8683
15024;0.00;0.04;-1.00;0.00;58;-61;-8684
15042;0.00;0.04;-1.00;0.00;59;-57;-8687
15060;0.00;0.04;-1.00;0.00;60;-51;-8691
15077;0.00;0.04;-1.00;0.00;64;-51;-8698
15092;0.00;0.04;-1.00;0.00;66;-54;-8691
15112;0.00;0.04;-1.00;0.00;67;-53;-8686
15139;0.00;0.04;-1.00;0.00;60;-52;-8705
15156;0.00;0.04;-1.00;0.00;60;-56;-8709
15173;0.00;0.04;-1.00;0.00;57;-53;-8715
15191;0.00;0.04;-1.00;0.00;59;-50;-8713
15209;0.00;0.04;-1.00;0.00;62;-52;-8714
15224;0.00;0.04;-1.00;0.00;59;-52;-8710
15242;0.00;0.04;-1.00;0.00;56;-52;-8703
15260;0.00;0.04;-1.00;0.00;55;-52;-8700
15277;0.00;0.04;-1.00;0.00;55;-51;-8702
15294;0.00;0.04;-1.00;0.00;55;-56;-8698
15311;0.00;0.04;-1.00;0.00;48;-55;-8697
15330;0.00;0.04;-1.00;0.00;50;-59;-8694
16349;0.00;0.04;-1.00;0.00;60;-54;-8696
16368;0.00;0.04;-1.00;0.00;60;-53;-8696
16385;0.00;0.04;-1.00;0.00;59;-54;-8702
16403;0.00;0.04;-1.00;0.00;55;-52;-8701
16420;0.00;0.04;-1.00;0.00;60;-50;-8701
16438;0.00;0.04;-1.00;0.00;64;-52;-8695
16454;0.00;0.04;-1.00;0.00;64;-54;-8689
16471;0.00;0.04;-1.00;0.00;65;-56;-8696
16489;0.00;0.04;-1.00;0.00;63;-56;-8697
16506;0.00;0.04;-1.00;0.00;60;-59;-8705
16524;0.00;0.04;-1.00;0.00;60;-57;-8706
16541;0.00;0.04;-1.00;0.00;56;-57;-8709
16559;0.00;0.04;-1.00;0.00;55;-56;-8713
16580;0.00;0.04;-1.00;0.00;58;-52;-8714
16595;0.00;0.04;-1.00;0.00;56;-54;-8709
16613;0.00;0.04;-1.00;0.00;55;-56;-8703
16631;0.00;0.04;-1.00;0.00;59;-51;-8705
16649;0.00;0.04;-1.00;0.00;58;-51;-8699
16665;0.00;0.04;-1.00;0.00;56;-52;-8700
16682;0.00;0.04;-1.00;0.00;59;-57;-8700
16701;0.00;0.04;-1.00;0.00;63;-62;-8700
16717;0.11;-1.10;1.05;0.65;54;0;-1
16738;0.00;0.04;-1.00;0.00;60;-58;-8689
16756;0.00;0.04;-1.00;0.00;66;-57;-8691
16775;0.00;0.04;-1.00;0.00;63;-56;-8692
16791;0.00;0.04;-1.00;0.00;64;-54;-8690
16810;0.00;0.04;-1.00;0.00;67;-52;-8691
16829;0.00;0.04;-1.00;0.00;66;-50;-8698
16847;0.00;0.04;-1.00;0.00;66;-52;-8702
16865;0.00;0.04;-1.00;0.00;67;-51;-8698
16881;0.00;0.04;-1.00;0.00;65;-49;-8693
16934;0.00;0.04;-1.00;0.00;61;-49;-8686
16952;0.00;0.04;-1.00;0.00;58;-51;-8686
16967;0.00;0.04;-1.00;0.00;60;-54;-8688
16984;0.00;0.04;-1.00;0.00;57;-52;-8698
17002;0.00;0.04;-1.00;0.00;53;-52;-8706
17019;0.00;0.04;-1.00;0.00;55;-57;-8709
17037;0.00;0.04;-1.00;0.00;59;-57;-8706
17053;0.00;0.04;-1.00;0.00;56;-57;-8711
17068;0.00;0.04;-1.00;0.00;57;-55;-8704
17086;0.00;0.04;-1.00;0.00;56;-58;-8704
17103;0.00;0.04;-1.00;0.00;60;-57;-8703
17121;0.00;0.04;-1.00;0.00;59;-54;-8701
17138;0.00;0.04;-1.00;0.00;57;-51;-8706
17155;0.00;0.04;-1.00;0.00;59;-50;-8702
17173;0.00;0.04;-1.00;0.00;59;-52;-8701
17190;0.00;0.04;-1.00;0.00;60;-52;-8700
17208;0.00;0.04;-1.00;0.00;59;-54;-8703
17225;0.00;0.04;-1.00;0.00;57;-54;-8698
17243;0.00;0.04;-1.00;0.00;61;-52;-8700
17268;0.00;0.04;-1.00;0.00;60;-62;-8702
17289;0.00;0.04;-1.00;0.00;61;-59;-8696
17307;0.00;0.04;-1.00;0.00;62;-57;-8696
17324;0.00;0.04;-1.00;0.00;61;-52;-8696
17340;0.00;0.04;-1.00;0.00;61;-50;-8698
17357;0.00;0.04;-1.00;0.00;59;-52;-8698
17377;0.00;0.04;-1.00;0.00;60;-47;-8695
17393;0.00;0.04;-1.00;0.00;61;-48;-8694
17409;0.00;0.04;-1.00;0.00;57;-52;-8693
17427;0.00;0.04;-1.00;0.00;56;-50;-8689
17445;0.00;0.04;-1.00;0.00;57;-49;-8693
17463;0.00;0.04;-1.00;0.00;59;-52;-8692
17479;0.00;0.04;-1.00;0.00;62;-57;-8699
17501;0.00;0.04;-1.00;0.00;58;-60;-8701
17519;0.00;0.04;-1.00;0.00;58;-60;-8702
17535;0.00;0.04;-1.00;0.00;55;-57;-8703
17551;0.00;0.04;-1.00;0.00;52;-58;-8705
17570;0.00;0.04;-1.00;0.00;54;-58;-8701
17589;0.00;0.04;-1.00;0.00;61;-56;-8692
17604;0.00;0.04;-1.00;0.00;60;-54;-8690
17620;0.00;0.04;-1.00;0.00;54;-56;-8686
17640;0.00;0.04;-1.00;0.00;57;-58;-8684
17657;0.00;0.04;-1.00;0.00;58;-62;-8690
17674;0.00;0.04;-1.00;0.00;60;-63;-8692
17690;0.00;0.04;-1.00;0.00;61;-64;-8687
17708;0.00;0.04;-1.00;0.00;58;-61;-8687
17730;0.00;0.04;-1.00;0.00;57;-57;-8686
17746;0.00;0.04;-1.00;0.00;58;-56;-8689
17764;0.00;0.04;-1.00;0.00;60;-59;-8693
17782;0.00;0.04;-1.00;0.00;65;-57;-8698
17800;0.00;0.04;-1.00;0.00;66;-57;-8701
17815;0.00;0.04;-1.00;0.00;63;-53;-8692
17837;0.00;0.04;-1.00;0.00;62;-59;-8697
17856;0.00;0.04;-1.00;0.00;62;-57;-8695
17873;0.00;0.04;-1.00;0.00;63;-58;-8691
17890;0.00;0.04;-1.00;0.00;60;-53;-8691
17907;0.00;0.04;-1.00;0.00;64;-53;-8692
17926;0.00;0.04;-1.00;0.00;65;-53;-8694
17946;0.00;0.04;-1.00;0.00;68;-56;-8696
17963;0.00;0.04;-1.00;0.00;70;-54;-8700
17981;0.00;0.04;-1.00;0.00;71;-50;-8703
17998;0.00;0.04;-1.00;0.00;68;-49;-8700
18015;0.00;0.04;-1.00;0.00;64;-47;-8696
18034;0.00;0.04;-1.00;0.00;61;-47;-8697
18053;0.00;0.04;-1.00;0.00;58;-48;-8704
18076;0.00;0.04;-1.00;0.00;62;-50;-8703
18091;0.00;0.04;-1.00;0.00;64;-51;-8704
18109;0.00;0.04;-1.00;0.00;63;-51;-8699
18126;0.00;0.04;-1.00;0.00;63;-55;-8690
18144;0.00;0.04;-1.00;0.00;57;-60;-8684
18161;0.00;0.04;-1.00;0.00;61;-59;-8685
18183;0.00;0.04;-1.00;0.00;63;-58;-8691
18199;0.00;0.04;-1.00;0.00;62;-57;-8695
18216;0.00;0.04;-1.00;0.00;67;-56;-8698
18235;0.00;0.04;-1.00;0.00;66;-55;-8695
18252;0.00;0.04;-1.00;0.00;65;-57;-8699
18268;0.00;0.04;-1.00;0.00;62;-54;-8698
18285;0.00;0.04;-1.00;0.00;59;-59;-8698
18304;0.00;0.04;-1.00;0.00;58;-59;-8686
18321;0.00;0.04;-1.00;0.00;61;-56;-8691
18337;0.00;0.04;-1.00;0.00;65;-56;-8693
18355;0.00;0.04;-1.00;0.00;61;-55;-8699
18373;0.00;0.04;-1.00;0.00;59;-57;-8700
18398;0.00;0.04;-1.00;0.00;60;-47;-8709
18414;0.00;0.04;-1.00;0.00;63;-48;-8704
18432;0.00;0.04;-1.00;0.00;61;-48;-8698
18451;0.00;0.04;-1.00;0.00;58;-49;-8702
18467;0.00;0.04;-1.00;0.00;59;-50;-8700
18483;0.00;0.04;-1.00;0.00;65;-51;-8699
18502;0.00;0.04;-1.00;0.00;61;-52;-8700
18520;0.00;0.04;-1.00;0.00;63;-52;-8697
18538;0.00;0.04;-1.00;0.00;63;-53;-8692
18555;0.00;0.04;-1.00;0.00;65;-50;-8688
18618;0.00;0.04;-1.00;0.00;62;-50;-8684
18634;0.00;0.04;-1.00;0.00;62;-48;-8687
18651;0.00;0.04;-1.00;0.00;61;-47;-8692
18671;0.00;0.04;-1.00;0.00;63;-49;-8688
18688;0.00;0.04;-1.00;0.00;63;-52;-8691
18707;0.00;0.04;-1.00;0.00;58;-51;-8688
18723;0.00;0.04;-1.00;0.00;59;-52;-8690
18740;0.00;0.04;-1.00;0.00;59;-53;-8699
18757;0.00;0.04;-1.00;0.00;61;-55;-8700
18775;0.00;0.04;-1.00;0.00;58;-59;-8702
18793;0.00;0.04;-1.00;0.00;58;-59;-8701
18809;0.00;0.04;-1.00;0.00;59;-57;-8709
18826;0.00;0.04;-1.00;0.00;63;-58;-8707
18845;0.00;0.04;-1.00;0.00;61;-56;-8701
18861;0.00;0.04;-1.00;0.00;59;-51;-8702
18881;0.00;0.04;-1.00;0.00;56;-54;-8705
18908;0.00;0.04;-1.00;0.00;53;-51;-8702
18925;0.00;0.04;-1.00;0.00;52;-52;-8695
18941;0.00;0.04;-1.00;0.00;52;-54;-8691
18958;0.00;0.04;-1.00;0.00;53;-51;-8693
18976;0.00;0.04;-1.00;0.00;55;-49;-8696
18993;0.00;0.04;-1.00;0.00;57;-48;-8695
19009;0.00;0.04;-1.00;0.00;57;-48;-8694
19026;0.00;0.04;-1.00;0.00;53;-48;-8697
19045;0.00;0.04;-1.00;0.00;54;-49;-8696
19062;0.00;0.04;-1.00;0.00;53;-53;-8702
19078;0.00;0.04;-1.00;0.00;52;-53;-8705
19095;0.00;0.04;-1.00;0.00;57;-52;-8699
19116;0.00;0.04;-1.00;0.00;54;-55;-8697
19133;0.00;0.04;-1.00;0.00;57;-55;-8696
19150;0.00;0.04;-1.00;0.00;57;-54;-8696
19168;0.00;0.04;-1.00;0.00;57;-54;-8698
20187;0.00;0.04;-1.00;0.00;54;-55;-8691
20204;0.00;0.04;-1.00;0.00;49;-56;-8688
20221;0.00;0.04;-1.00;0.00;51;-53;-8689
20238;0.00;0.04;-1.00;0.00;56;-53;-8687
20255;0.00;0.04;-1.00;0.00;58;-52;-8683
20273;0.00;0.04;-1.00;0.00;59;-56;-8688
20290;0.00;0.04;-1.00;0.00;63;-58;-8694
20307;0.00;0.04;-1.00;0.00;66;-62;-8697
20327;0.00;0.04;-1.00;0.00;62;-60;-8690
20345;0.00;0.04;-1.00;0.00;61;-55;-8690
20363;0.00;0.04;-1.00;0.00;62;-51;-8690
20378;0.00;0.04;-1.00;0.00;62;-48;-8689
20395;0.00;0.04;-1.00;0.00;60;-47;-8685
20414;0.00;0.04;-1.00;0.00;62;-49;-8687
20431;0.00;0.04;-1.00;0.00;63;-46;-8694
20448;0.00;0.04;-1.00;0.00;62;-50;-8694
20465;0.00;0.04;-1.00;0.00;64;-51;-8697
20483;0.00;0.04;-1.00;0.00;66;-50;-8701
20506;0.00;0.04;-1.00;0.00;50;-60;-8704
20522;0.00;0.04;-1.00;0.00;55;-59;-8700
20540;0.00;0.04;-1.00;0.00;55;-55;-8702
20562;0.00;0.04;-1.00;0.00;55;-54;-8697
20578;0.00;0.04;-1.00;0.00;58;-52;-8698
20594;0.00;0.04;-1.00;0.00;55;-53;-8690
20613;0.00;0.04;-1.00;0.00;55;-54;-8688
20631;0.00;0.04;-1.00;0.00;57;-50;-8692
20646;0.00;0.04;-1.00;0.00;59;-50;-8693
20663;0.00;0.04;-1.00;0.00;58;-50;-8695
20681;0.00;0.04;-1.00;0.00;56;-49;-8696
20700;0.00;0.04;-1.00;0.00;53;-50;-8687
20716;0.00;0.04;-1.00;0.00;50;-50;-8687
20731;0.00;0.04;-1.00;0.00;50;-48;-8693
20750;0.00;0.04;-1.00;0.00;55;-51;-8701
20781;0.00;0.04;-1.00;0.00;57;-56;-8699
20801;0.00;0.04;-1.00;0.00;56;-58;-8698
20821;0.00;0.04;-1.00;0.00;59;-59;-8697
20841;0.00;0.04;-1.00;0.00;64;-57;-8693
20859;0.00;0.04;-1.00;0.00;59;-53;-8699
20878;0.00;0.04;-1.00;0.00;57;-52;-8693
20898;0.00;0.04;-1.00;0.00;60;-53;-8698
20917;0.00;0.04;-1.00;0.00;59;-53;-8703
20936;0.00;0.04;-1.00;0.00;56;-52;-8705
20956;0.00;0.04;-1.00;0.00;54;-51;-8707
20975;0.00;0.04;-1.00;0.00;60;-55;-8707
20994;0.00;0.04;-1.00;0.00;60;-58;-8696
21014;0.00;0.04;-1.00;0.00;57;-62;-8698
21049;0.00;0.04;-1.00;0.00;60;-56;-8687
21068;0.00;0.04;-1.00;0.00;58;-62;-8684
21087;0.00;0.04;-1.00;0.00;59;-63;-8686
21106;0.00;0.04;-1.00;0.00;60;-63;-8684
21127;0.00;0.04;-1.00;0.00;59;-60;-8688
21146;0.00;0.04;-1.00;0.00;61;-60;-8690
21164;0.00;0.04;-1.00;0.00;61;-61;-8697
21184;0.00;0.04;-1.00;0.00;64;-60;-8699
21204;0.00;0.04;-1.00;0.00;62;-58;-8702
21225;0.00;0.04;-1.00;0.00;62;-55;-8699
21245;0.00;0.04;-1.00;0.00;59;-55;-8695
21270;0.00;0.04;-1.00;0.00;55;-56;-8694
21338;0.00;0.04;-1.00;0.00;54;-58;-8692
21356;0.00;0.04;-1.00;0.00;54;-56;-8693
21375;0.00;0.04;-1.00;0.00;58;-58;-8699
21395;0.00;0.04;-1.00;0.00;59;-54;-8695
21414;0.00;0.04;-1.00;0.00;62;-54;-8692
21434;0.00;0.04;-1.00;0.00;63;-58;-8694
21453;0.00;0.04;-1.00;0.00;61;-58;-8695
21473;0.00;0.04;-1.00;0.00;68;-59;-8694
21498;0.00;0.04;-1.00;0.00;61;-58;-8698
21518;0.00;0.04;-1.00;0.00;59;-57;-8697
21537;0.00;0.04;-1.00;0.00;61;-58;-8695
21557;0.00;0.04;-1.00;0.00;61;-58;-8695
21576;0.00;0.04;-1.00;0.00;59;-56;-8694
21600;0.00;0.04;-1.00;0.00;61;-56;-8697
21618;0.00;0.04;-1.00;0.00;65;-51;-8702
21638;0.00;0.04;-1.00;0.00;67;-48;-8698
21658;0.00;0.04;-1.00;0.00;65;-49;-8691
21677;0.00;0.04;-1.00;0.00;63;-48;-8693
21696;0.00;0.04;-1.00;0.00;60;-47;-8698
21715;0.00;0.04;-1.00;0.00;62;-46;-8689
21736;0.00;0.04;-1.00;0.00;61;-51;-8686
21755;0.00;0.04;-1.00;0.00;65;-60;-8691
21774;0.00;0.04;-1.00;0.00;64;-57;-8695
21793;0.00;0.04;-1.00;0.00;60;-57;-8694
21814;0.00;0.04;-1.00;0.00;54;-54;-8691
21836;0.00;0.04;-1.00;0.00;54;-56;-8691
21855;0.00;0.04;-1.00;0.00;57;-63;-8686
21875;0.00;0.04;-1.00;0.00;59;-63;-8687
21896;0.00;0.04;-1.00;0.00;62;-60;-8689
21914;0.00;0.04;-1.00;0.00;61;-58;-8688
21932;0.00;0.04;-1.00;0.00;55;-57;-8690
21954;0.00;0.04;-1.00;0.00;61;-55;-8694
21974;0.00;0.04;-1.00;0.00;61;-51;-8697
21998;0.00;0.04;-1.00;0.00;63;-61;-8704
22016;0.00;0.04;-1.00;0.00;58;-65;-8700
22038;0.00;0.04;-1.00;0.00;54;-65;-8694
22058;0.00;0.04;-1.00;0.00;54;-64;-8683
22076;0.00;0.04;-1.00;0.00;55;-63;-8682
22098;0.00;0.04;-1.00;0.00;59;-60;-8687
22120;0.00;0.04;-1.00;0.00;63;-59;-8694
22139;0.00;0.04;-1.00;0.00;62;-63;-8690
22158;0.00;0.04;-1.00;0.00;64;-63;-8694
22177;0.00;0.04;-1.00;0.00;66;-61;-8688
22198;0.00;0.04;-1.00;0.00;67;-58;-8696
22217;0.00;0.04;-1.00;0.00;68;-57;-8701
22236;0.00;0.04;-1.00;0.00;60;-56;-8699
22255;0.00;0.04;-1.00;0.00;57;-56;-8695
22277;0.00;0.04;-1.00;0.00;59;-55;-8691
22295;0.00;0.04;-1.00;0.00;61;-52;-8693
22313;0.00;0.04;-1.00;0.00;61;-55;-8698
22337;0.00;0.04;-1.00;0.00;61;-57;-8700
22357;0.00;0.04;-1.00;0.00;59;-54;-8701
22377;0.00;0.04;-1.00;0.00;59;-53;-8696
22396;0.00;0.04;-1.00;0.00;62;-56;-8697
22416;0.00;0.04;-1.00;0.00;63;-56;-8705
22435;0.00;0.04;-1.00;0.00;68;-56;-8705
22455;0.00;0.04;-1.00;0.00;65;-57;-8697
22474;0.00;0.04;-1.00;0.00;67;-56;-8705
22498;0.00;0.04;-1.00;0.00;62;-52;-8694
22517;0.00;0.04;-1.00;0.00;58;-52;-8700
22537;0.00;0.04;-1.00;0.00;54;-55;-8701
22556;0.00;0.04;-1.00;0.00;55;-55;-8698
22576;0.00;0.04;-1.00;0.00;60;-55;-8695
22598;0.00;0.04;-1.00;0.00;61;-51;-8701
22620;0.00;0.04;-1.00;0.00;63;-49;-8704
22639;0.00;0.04;-1.00;0.00;65;-48;-8709
22656;0.00;0.04;-1.00;0.00;66;-51;-8707
22677;0.00;0.04;-1.00;0.00;62;-51;-8703
22697;0.00;0.04;-1.00;0.00;58;-54;-8708
22717;0.00;0.04;-1.00;0.00;54;-53;-8705
22735;0.00;0.04;-1.00;0.00;56;-55;-8696
22755;0.00;0.04;-1.00;0.00;55;-53;-8696
22775;0.00;0.04;-1.00;0.00;54;-53;-8697
22795;0.00;0.04;-1.00;0.00;57;-56;-8693
22813;0.00;0.04;-1.00;0.00;60;-54;-8696
22837;0.00;0.04;-1.00;0.00;59;-56;-8689
22857;0.00;0.04;-1.00;0.00;58;-53;-8685
22876;0.00;0.04;-1.00;0.00;63;-55;-8684
22894;0.00;0.04;-1.00;0.00;61;-59;-8687
22915;0.00;0.04;-1.00;0.00;61;-59;-8694
22936;0.00;0.04;-1.00;0.00;58;-62;-8696
22954;0.00;0.04;-1.00;0.00;57;-59;-8698
22972;0.00;0.04;-1.00;0.00;56;-54;-8697
22998;0.00;0.04;-1.00;0.00;59;-45;-8693
23019;0.00;0.04;-1.00;0.00;59;-44;-8691
23036;0.00;0.04;-1.00;0.00;57;-51;-8689
23055;0.00;0.04;-1.00;0.00;58;-54;-8695
23076;0.00;0.04;-1.00;0.00;54;-56;-8698
23101;0.00;0.04;-1.00;0.00;52;-55;-8708
23120;0.00;0.04;-1.00;0.00;52;-59;-8708
23184;0.00;0.04;-1.00;0.00;53;-58;-8707
23203;0.00;0.04;-1.00;0.00;59;-58;-8707
23223;0.00;0.04;-1.00;0.00;61;-56;-8703
23242;0.00;0.04;-1.00;0.00;59;-54;-8707
23261;0.00;0.04;-1.00;0.00;59;-55;-8711
23280;0.00;0.04;-1.00;0.00;54;-57;-8713
23301;0.00;0.04;-1.00;0.00;55;-57;-8704
24328;0.00;0.04;-1.00;0.00;61;-56;-8696
24345;0.00;0.04;-1.00;0.00;63;-55;-8693
24365;0.00;0.04;-1.00;0.00;60;-53;-8694
24390;0.00;0.04;-1.00;0.00;61;-53;-8690
24408;0.00;0.04;-1.00;0.00;61;-51;-8694
24426;0.00;0.04;-1.00;0.00;57;-54;-8700
24458;0.00;0.04;-1.00;0.00;55;-59;-8701
24478;0.00;0.04;-1.00;0.00;56;-62;-8700
24497;0.00;0.04;-1.00;0.00;57;-62;-8703
24514;0.00;0.04;-1.00;0.00;61;-63;-8697
24535;0.00;0.04;-1.00;0.00;61;-63;-8691
24556;0.00;0.04;-1.00;0.00;60;-58;-8693
24574;0.00;0.04;-1.00;0.00;58;-62;-8688
24593;0.00;0.04;-1.00;0.00;62;-58;-8691
24613;0.00;0.04;-1.00;0.00;62;-57;-8687
24634;0.00;0.04;-1.00;0.00;60;-59;-8688
24655;0.00;0.04;-1.00;0.00;58;-58;-8686
24675;0.00;0.04;-1.00;0.00;53;-58;-8683
24695;0.00;0.04;-1.00;0.00;56;-57;-8681
24715;0.00;0.04;-1.00;0.00;59;-56;-8684
24734;0.00;0.04;-1.00;0.00;63;-58;-8676
24755;0.00;0.04;-1.00;0.00;64;-55;-8683
24780;0.00;0.04;-1.00;0.00;60;-54;-8685
24799;0.00;0.04;-1.00;0.00;56;-56;-8688
24816;0.00;0.04;-1.00;0.00;55;-60;-8683
24837;0.00;0.04;-1.00;0.00;62;-59;-8678
24857;0.00;0.04;-1.00;0.00;58;-54;-8679
24876;0.00;0.04;-1.00;0.00;51;-52;-8686
24899;0.00;0.04;-1.00;0.00;57;-53;-8689
24918;0.00;0.04;-1.00;0.00;61;-53;-8683
24947;0.00;0.04;-1.00;0.00;53;-48;-8694
24967;0.00;0.04;-1.00;0.00;54;-51;-8696
24986;0.00;0.04;-1.00;0.00;54;-50;-8692
25004;0.00;0.04;-1.00;0.00;52;-50;-8692
25024;0.00;0.04;-1.00;0.00;53;-51;-8691
25044;0.00;0.04;-1.00;0.00;52;-52;-8692
25064;0.00;0.04;-1.00;0.00;46;-59;-8695
25082;0.00;0.04;-1.00;0.00;47;-61;-8698
25102;0.00;0.04;-1.00;0.00;54;-59;-8687
25122;0.00;0.04;-1.00;0.00;56;-59;-8692
25142;0.00;0.04;-1.00;0.00;60;-57;-8687
25163;0.00;0.04;-1.00;0.00;64;-57;-8680
25184;0.00;0.04;-1.00;0.00;63;-57;-8675
25204;0.00;0.04;-1.00;0.00;62;-59;-8673
25223;0.00;0.04;-1.00;0.00;55;-59;-8674
25241;0.00;0.04;-1.00;0.00;57;-58;-8675
25261;0.00;0.04;-1.00;0.00;65;-53;-8680
25282;0.00;0.04;-1.00;0.00;63;-54;-8680
25300;0.00;0.04;-1.00;0.00;60;-59;-8682
25319;0.00;0.04;-1.00;0.00;61;-59;-8684
25339;0.00;0.04;-1.00;0.00;55;-57;-8683
25360;0.00;0.04;-1.00;0.00;53;-55;-8679
25378;0.00;0.04;-1.00;0.00;48;-53;-8682
25401;0.00;0.04;-1.00;0.00;48;-54;-8681
25421;0.00;0.04;-1.00;0.00;47;-54;-8685
25447;0.00;0.04;-1.00;0.00;60;-60;-8697
25465;0.00;0.04;-1.00;0.00;66;-54;-8700
25485;0.00;0.04;-1.00;0.00;61;-54;-8688
25505;0.00;0.04;-1.00;0.00;62;-55;-8688
25525;0.00;0.04;-1.00;0.00;63;-58;-8692
25543;0.00;0.04;-1.00;0.00;62;-55;-8689
25563;0.00;0.04;-1.00;0.00;61;-54;-8689
25583;0.00;0.04;-1.00;0.00;60;-51;-8689
25602;0.00;0.04;-1.00;0.00;59;-55;-8685
25621;0.00;0.04;-1.00;0.00;53;-58;-8684
25640;0.00;0.04;-1.00;0.00;52;-60;-8680
25664;0.00;0.04;-1.00;0.00;57;-60;-8681
25683;0.00;0.04;-1.00;0.00;60;-60;-8681
25703;0.00;0.04;-1.00;0.00;60;-59;-8683
25722;0.00;0.04;-1.00;0.00;59;-59;-8684
25742;0.00;0.04;-1.00;0.00;58;-54;-8685
25761;0.00;0.04;-1.00;0.00;57;-51;-8684
25781;0.00;0.04;-1.00;0.00;59;-51;-8687
25800;0.00;0.04;-1.00;0.00;55;-52;-8691
25820;0.00;0.04;-1.00;0.00;59;-53;-8694
25839;0.00;0.04;-1.00;0.00;60;-58;-8696
25858;0.00;0.04;-1.00;0.00;59;-60;-8703
25877;0.00;0.04;-1.00;0.00;62;-60;-8702
25899;0.00;0.04;-1.00;0.00;64;-55;-8700
25921;0.00;0.04;-1.00;0.00;64;-51;-8694
25947;0.00;0.04;-1.00;0.00;58;-53;-8706
25966;0.00;0.04;-1.00;0.00;62;-53;-8702
25986;0.00;0.04;-1.00;0.00;65;-51;-8698
26042;0.00;0.04;-1.00;0.00;62;-50;-8701
26060;0.00;0.04;-1.00;0.00;61;-46;-8706
26079;0.00;0.04;-1.00;0.00;62;-52;-8703
26098;0.00;0.04;-1.00;0.00;56;-55;-8710
26119;0.00;0.04;-1.00;0.00;56;-57;-8699
26138;0.00;0.04;-1.00;0.00;56;-59;-8699
26156;0.00;0.04;-1.00;0.00;59;-61;-8699
26176;0.00;0.04;-1.00;0.00;62;-59;-8697
26200;0.00;0.04;-1.00;0.00;61;-54;-8696
26219;0.00;0.04;-1.00;0.00;59;-53;-8706
26237;0.00;0.04;-1.00;0.00;59;-52;-8708
26258;0.00;0.04;-1.00;0.00;57;-56;-8707
26278;0.00;0.04;-1.00;0.00;60;-55;-8701
26297;0.00;0.04;-1.00;0.00;61;-50;-8697
26314;0.00;0.04;-1.00;0.00;62;-49;-8699
26336;0.00;0.04;-1.00;0.00;61;-51;-8692
26356;0.00;0.04;-1.00;0.00;61;-51;-8692
26375;0.00;0.04;-1.00;0.00;57;-48;-8692
26392;0.00;0.04;-1.00;0.00;59;-49;-8696
26417;0.00;0.04;-1.00;0.00;63;-56;-8710
26440;0.00;0.04;-1.00;0.00;62;-56;-8708
26459;0.00;0.04;-1.00;0.00;59;-56;-8703
26478;0.00;0.04;-1.00;0.00;61;-54;-8701
26498;0.00;0.04;-1.00;0.00;63;-56;-8699
26518;0.00;0.04;-1.00;0.00;63;-58;-8700
26536;0.00;0.04;-1.00;0.00;66;-57;-8699
26556;0.00;0.04;-1.00;0.00;66;-57;-8704
26576;0.00;0.04;-1.00;0.00;66;-57;-8705
26596;0.00;0.04;-1.00;0.00;61;-57;-8706
26613;0.00;0.04;-1.00;0.00;60;-54;-8701
26634;0.00;0.04;-1.00;0.00;61;-57;-8694
26654;0.00;0.04;-1.00;0.00;67;-54;-8694
26674;0.00;0.04;-1.00;0.00;65;-56;-8693
26695;0.00;0.04;-1.00;0.00;60;-56;-8697
26715;0.00;0.04;-1.00;0.00;56;-54;-8705
26734;0.00;0.04;-1.00;0.00;57;-53;-8706
26753;0.00;0.04;-1.00;0.00;56;-55;-8700
26773;0.00;0.04;-1.00;0.00;60;-55;-8701
26792;0.00;0.04;-1.00;0.00;62;-48;-8703
26812;0.00;0.04;-1.00;0.00;65;-49;-8703
26831;0.00;0.04;-1.00;0.00;65;-50;-8701
26851;0.00;0.04;-1.00;0.00;60;-48;-8697
26870;0.00;0.04;-1.00;0.00;58;-52;-8698
26890;0.00;0.04;-1.00;0.00;57;-54;-8692
26916;0.00;0.04;-1.00;0.00;64;-58;-8696
26940;0.00;0.04;-1.00;0.00;63;-56;-8695
26957;0.00;0.04;-1.00;0.00;59;-53;-8692
26978;0.00;0.04;-1.00;0.00;60;-55;-8695
26998;0.00;0.04;-1.00;0.00;61;-54;-8696
27018;0.00;0.04;-1.00;0.00;62;-51;-8702
27035;0.00;0.04;-1.00;0.00;63;-55;-8705
27056;0.00;0.04;-1.00;0.00;63;-58;-8703
27076;0.00;0.04;-1.00;0.00;65;-51;-8707
27095;0.00;0.04;-1.00;0.00;66;-52;-8710
27114;0.00;0.04;-1.00;0.00;63;-53;-8707
27133;0.00;0.04;-1.00;0.00;63;-54;-8709
27154;0.00;0.04;-1.00;0.00;63;-54;-8702
27174;0.00;0.04;-1.00;0.00;58;-54;-8697
27197;0.00;0.04;-1.00;0.00;61;-50;-8694
27222;0.00;0.04;-1.00;0.00;61;-51;-8704
27242;0.00;0.04;-1.00;0.00;61;-53;-8705
27260;0.00;0.04;-1.00;0.00;61;-54;-8696
27278;0.00;0.04;-1.00;0.00;59;-57;-8692
27299;0.00;0.04;-1.00;0.00;61;-56;-8685
27320;0.00;0.04;-1.00;0.00;62;-53;-8687
27338;0.00;0.04;-1.00;0.00;56;-51;-8684
27357;0.00;0.04;-1.00;0.00;58;-53;-8684
27377;0.00;0.04;-1.00;0.00;57;-56;-8690
27406;0.00;0.04;-1.00;0.00;61;-59;-8684
27424;0.00;0.04;-1.00;0.00;62;-61;-8678
27447;0.00;0.04;-1.00;0.00;63;-59;-8680
27467;0.00;0.04;-1.00;0.00;62;-55;-8675
28496;0.00;0.04;-1.00;0.00;57;-63;-8702
28515;0.00;0.04;-1.00;0.00;59;-61;-8703
28534;0.00;0.04;-1.00;0.00;55;-61;-8700
28555;0.00;0.04;-1.00;0.00;57;-59;-8698
28574;0.00;0.04;-1.00;0.00;60;-58;-8697
28593;0.00;0.04;-1.00;0.00;62;-59;-8692
28612;0.00;0.04;-1.00;0.00;64;-58;-8688
28632;0.00;0.04;-1.00;0.00;63;-59;-8689
28652;0.00;0.04;-1.00;0.00;63;-55;-8693
28670;0.00;0.04;-1.00;0.00;66;-53;-8699
28690;0.00;0.04;-1.00;0.00;65;-51;-8707
28713;0.00;0.04;-1.00;0.00;62;-54;-8710
28733;0.00;0.04;-1.00;0.00;64;-57;-8710
28752;0.00;0.04;-1.00;0.00;63;-57;-8709
28772;0.00;0.04;-1.00;0.00;62;-59;-8701
28793;0.00;0.04;-1.00;0.00;60;-58;-8706
28814;0.00;0.04;-1.00;0.00;56;-55;-8701
28885;0.00;0.04;-1.00;0.00;62;-57;-8694
28903;0.00;0.04;-1.00;0.00;58;-56;-8688
28923;0.00;0.04;-1.00;0.00;56;-58;-8692
28943;0.00;0.04;-1.00;0.00;54;-58;-8695
28962;0.00;0.04;-1.00;0.00;56;-53;-8691
28982;0.00;0.04;-1.00;0.00;58;-54;-8700
29004;0.00;0.04;-1.00;0.00;54;-54;-8701
29025;0.00;0.04;-1.00;0.00;54;-53;-8696
29044;0.00;0.04;-1.00;0.00;57;-52;-8699
29063;0.00;0.04;-1.00;0.00;59;-49;-8701
29083;0.00;0.04;-1.00;0.00;62;-49;-8701
29104;0.00;0.04;-1.00;0.00;63;-48;-8697
29123;0.00;0.04;-1.00;0.00;62;-46;-8694
29141;0.00;0.04;-1.00;0.00;58;-46;-8688
29161;0.00;0.04;-1.00;0.00;56;-45;-8691
29181;0.00;0.04;-1.00;0.00;58;-51;-8690
29201;0.00;0.04;-1.00;0.00;59;-51;-8688
29219;0.00;0.04;-1.00;0.00;57;-50;-8691
29239;0.00;0.04;-1.00;0.00;55;-44;-8692
29263;0.00;0.04;-1.00;0.00;57;-46;-8694
29282;0.00;0.04;-1.00;0.00;56;-47;-8697
29300;0.00;0.04;-1.00;0.00;56;-51;-8696
29322;0.00;0.04;-1.00;0.00;55;-55;-8689
29342;0.00;0.04;-1.00;0.00;57;-60;-8688
29361;0.00;0.04;-1.00;0.00;59;-62;-8688
29385;0.00;0.04;-1.00;0.00;59;-59;-8693
29407;0.00;0.04;-1.00;0.00;62;-57;-8692
29427;0.00;0.04;-1.00;0.00;61;-56;-8696
29446;0.00;0.04;-1.00;0.00;63;-59;-8695
29464;0.00;0.04;-1.00;0.00;65;-57;-8694
29484;0.00;0.04;-1.00;0.00;65;-58;-8698
29508;0.00;0.04;-1.00;0.00;63;-62;-8700
29526;0.00;0.04;-1.00;0.00;60;-60;-8702
29546;0.00;0.04;-1.00;0.00;59;-57;-8705
29567;0.00;0.04;-1.00;0.00;56;-55;-8704
29587;0.00;0.04;-1.00;0.00;59;-58;-8700
29605;0.00;0.04;-1.00;0.00;63;-56;-8700
29625;0.00;0.04;-1.00;0.00;64;-62;-8703
29645;0.00;0.04;-1.00;0.00;62;-59;-8704
29665;0.00;0.04;-1.00;0.00;60;-61;-8707
29683;0.00;0.04;-1.00;0.00;63;-59;-8699
29703;0.00;0.04;-1.00;0.00;62;-62;-8702
29724;0.00;0.04;-1.00;0.00;59;-60;-8701
29744;0.00;0.04;-1.00;0.00;59;-61;-8702
29766;0.00;0.04;-1.00;0.00;56;-57;-8698
29784;0.00;0.04;-1.00;0.00;60;-55;-8700
29805;0.00;0.04;-1.00;0.00;59;-52;-8702
29824;0.00;0.04;-1.00;0.00;62;-54;-8703
29844;0.00;0.04;-1.00;0.00;65;-57;-8702
29863;0.00;0.04;-1.00;0.00;16298;-14178;1188
29885;0.00;0.04;-1.00;0.00;58;-46;-8705
29904;0.00;0.04;-1.00;0.00;61;-51;-8702
29924;0.00;0.04;-1.00;0.00;62;-54;-8696
29943;0.00;0.04;-1.00;0.00;64;-56;-8699
29963;0.00;0.04;-1.00;0.00;64;-54;-8697
29982;0.00;0.04;-1.00;0.00;62;-54;-8695
30006;0.00;0.04;-1.00;0.00;64;-55;-8700
30024;0.00;0.04;-1.00;0.00;68;-58;-8708
30044;0.00;0.04;-1.00;0.00;67;-57;-8701
30064;0.00;0.04;-1.00;0.00;63;-51;-8698
30083;0.00;0.04;-1.00;0.00;59;-51;-8704
30102;0.00;0.04;-1.00;0.00;58;-53;-8705
30121;0.00;0.04;-1.00;0.00;59;-56;-8706
30142;0.00;0.04;-1.00;0.00;55;-57;-8703
30161;0.00;0.04;-1.00;0.00;54;-56;-8700
30180;0.00;0.04;-1.00;0.00;55;-57;-8694
30199;0.00;0.04;-1.00;0.00;54;-53;-8698
30220;0.00;0.04;-1.00;0.00;54;-55;-8702
30242;0.00;0.04;-1.00;0.00;54;-56;-8701
30261;0.00;0.04;-1.00;0.00;55;-55;-8709
30281;0.00;0.04;-1.00;0.00;52;-56;-8716
30302;0.00;0.04;-1.00;0.00;50;-57;-8712
30320;0.00;0.04;-1.00;0.00;52;-58;-8709
30338;0.00;0.04;-1.00;0.00;57;-61;-8703
30359;0.00;0.04;-1.00;0.00;62;-64;-8693
30386;0.00;0.04;-1.00;0.00;54;-57;-8694
30403;0.00;0.04;-1.00;0.00;51;-56;-8689
30421;0.00;0.04;-1.00;0.00;54;-56;-8697
30443;0.00;0.04;-1.00;0.00;58;-55;-8699
30463;0.00;0.04;-1.00;0.00;57;-53;-8692
30481;0.00;0.04;-1.00;0.00;60;-59;-8695
30503;0.00;0.04;-1.00;0.00;63;-58;-8697
30525;0.00;0.04;-1.00;0.00;65;-53;-8693
30543;0.00;0.04;-1.00;0.00;62;-50;-8686
30562;0.00;0.04;-1.00;0.00;63;-53;-8690
30581;0.00;0.04;-1.00;0.00;62;-52;-8692
30603;0.00;0.04;-1.00;0.00;60;-50;-8689
30623;0.00;0.04;-1.00;0.00;61;-54;-8690
30644;0.00;0.04;-1.00;0.00;59;-54;-8690
30701;0.00;0.04;-1.00;0.00;58;-54;-8687
30726;0.00;0.04;-1.00;0.00;58;-55;-8693
30743;0.00;0.04;-1.00;0.00;55;-56;-8699
30761;0.00;0.04;-1.00;0.00;59;-57;-8701
30785;0.00;0.04;-1.00;0.00;61;-60;-8694
30804;0.00;0.04;-1.00;0.00;59;-58;-8691
30824;0.09;1.81;0.07;0.90;54;0;0
30844;0.00;0.04;-1.00;0.00;58;-54;-8705
30864;0.00;0.04;-1.00;0.00;63;-55;-8707
30883;0.00;0.04;-1.00;0.00;61;-59;-8699
30903;0.00;0.04;-1.00;0.00;64;-57;-8696
30922;0.00;0.04;-1.00;0.00;66;-54;-8701
30942;0.00;0.04;-1.00;0.00;62;-57;-8703
30961;0.00;0.04;-1.00;0.00;61;-56;-8701
30981;0.00;0.04;-1.00;0.00;60;-58;-8697
31000;0.00;0.04;-1.00;0.00;60;-62;-8700
31019;0.00;0.04;-1.00;0.00;61;-61;-8695
31041;0.00;0.04;-1.00;0.00;59;-57;-8690
31062;0.00;0.04;-1.00;0.00;59;-55;-8694
31082;0.00;0.04;-1.00;0.00;60;-55;-8687
31099;0.00;0.04;-1.00;0.00;62;-52;-8687
31120;0.00;0.04;-1.00;0.00;61;-55;-8685
31140;0.00;0.04;-1.00;0.00;58;-52;-8688
31160;0.00;0.04;-1.00;0.00;54;-53;-8693
31177;0.00;0.04;-1.00;0.00;58;-57;-8694
31197;0.00;0.04;-1.00;0.00;57;-59;-8688
31218;0.00;0.04;-1.00;0.00;55;-62;-8692
31238;0.00;0.04;-1.00;0.00;58;-62;-8698
31255;0.00;0.04;-1.00;0.00;58;-58;-8702
31274;0.00;0.04;-1.00;0.00;59;-59;-8706
31293;0.00;0.04;-1.00;0.00;57;-54;-8708
31312;0.00;0.04;-1.00;0.00;57;-55;-8706
31331;0.00;0.04;-1.00;0.00;60;-56;-8700
31354;0.00;0.04;-1.00;0.00;57;-55;-8706
31375;0.00;0.04;-1.00;0.00;63;-53;-8703
31394;0.00;0.04;-1.00;0.00;64;-52;-8700
31413;0.00;0.04;-1.00;0.00;65;-53;-8701
31432;0.00;0.04;-1.00;0.00;68;-55;-8701
31453;0.00;0.04;-1.00;0.00;68;-56;-8707
31472;0.00;0.04;-1.00;0.00;65;-54;-8705
31490;0.00;0.04;-1.00;0.00;65;-55;-8705
31510;0.00;0.04;-1.00;0.00;68;-55;-8704
31535;0.00;0.04;-1.00;0.00;64;-52;-8708
31553;0.00;0.04;-1.00;0.00;61;-54;-8703
31570;0.00;0.04;-1.00;0.00;57;-55;-8705
31592;0.00;0.04;-1.00;0.00;60;-55;-8711
31612;0.00;0.04;-1.00;0.00;61;-59;-8709
31631;0.00;0.04;-1.00;0.00;62;-57;-8706
31648;0.00;0.04;-1.00;0.00;61;-59;-8707
32674;0.00;0.04;-1.00;0.00;62;-58;-8694
32695;0.00;0.04;-1.00;0.00;58;-55;-8694
32712;0.00;0.04;-1.00;0.00;54;-55;-8690
32731;0.00;0.04;-1.00;0.00;56;-56;-8692
32752;0.00;0.04;-1.00;0.00;58;-53;-8701
32775;0.00;0.04;-1.00;0.00;57;-53;-8702
32793;0.00;0.04;-1.00;0.00;60;-50;-8700
32812;0.00;0.04;-1.00;0.00;62;-51;-8699
32833;0.00;0.04;-1.00;0.00;60;-47;-8700
32852;0.00;0.00;0.99;-0.78;-14400;30720;23808
32874;0.00;0.04;-1.00;0.00;63;-56;-8696
32893;0.00;0.04;-1.00;0.00;59;-57;-8693
32914;0.00;0.04;-1.00;0.00;58;-58;-8690
32933;0.00;0.04;-1.00;0.00;54;-55;-8696
32951;0.00;0.04;-1.00;0.00;54;-53;-8693
32971;0.00;0.04;-1.00;0.00;52;-55;-8688
32992;0.00;0.04;-1.00;0.00;54;-61;-8687
33011;0.00;0.04;-1.00;0.00;50;-60;-8688
33034;0.00;0.04;-1.00;0.00;45;-61;-8691
33052;0.00;0.04;-1.00;0.00;42;-63;-8694
33073;0.00;0.04;-1.00;0.00;50;-68;-8692
33091;0.00;0.04;-1.00;0.00;47;-66;-8696
33111;0.00;0.04;-1.00;0.00;50;-62;-8698
33131;0.00;0.04;-1.00;0.00;56;-63;-8698
33150;0.00;0.04;-1.00;0.00;62;-61;-8698
33170;0.00;0.04;-1.00;0.00;60;-62;-8701
33189;0.00;0.04;-1.00;0.00;63;-58;-8707
33209;0.00;0.04;-1.00;0.00;65;-59;-8707
33228;0.00;0.04;-1.00;0.00;66;-56;-8701
33248;0.00;0.04;-1.00;0.00;63;-60;-8699
33271;0.00;0.04;-1.00;0.00;65;-59;-8701
33290;0.00;0.04;-1.00;0.00;68;-58;-8701
33309;0.00;0.04;-1.00;0.00;68;-53;-8698
33330;0.00;0.04;-1.00;0.00;68;-54;-8697
33349;0.00;0.04;-1.00;0.00;71;-50;-8699
33374;0.00;0.04;-1.00;0.00;59;-57;-8688
33393;0.00;0.04;-1.00;0.00;60;-57;-8692
33415;0.00;0.04;-1.00;0.00;60;-55;-8687
33434;0.00;0.04;-1.00;0.00;53;-56;-8685
33453;0.00;0.04;-1.00;0.00;53;-54;-8694
33474;0.00;0.04;-1.00;0.00;53;-55;-8697
33532;0.00;0.04;-1.00;0.00;53;-55;-8693
33551;0.00;0.04;-1.00;0.00;51;-52;-8690
33572;0.00;0.04;-1.00;0.00;54;-53;-8690
33593;0.00;0.04;-1.00;0.00;56;-55;-8686
33614;0.00;0.04;-1.00;0.00;58;-58;-8692
33632;0.00;0.04;-1.00;0.00;65;-63;-8691
33650;0.00;0.04;-1.00;0.00;61;-66;-8694
33672;0.00;0.04;-1.00;0.00;63;-60;-8693
33692;0.00;0.04;-1.00;0.00;60;-58;-8700
33711;0.00;0.04;-1.00;0.00;65;-57;-8700
33728;0.00;0.04;-1.00;0.00;64;-56;-8702
33749;0.00;0.04;-1.00;0.00;67;-56;-8703
33770;0.00;0.04;-1.00;0.00;64;-58;-8700
33788;0.00;0.04;-1.00;0.00;67;-56;-8692
33811;0.00;0.04;-1.00;0.00;65;-56;-8694
33833;0.00;0.04;-1.00;0.00;55;-61;-8696
33852;0.00;0.04;-1.00;0.00;57;-60;-8700
33870;0.00;0.04;-1.00;0.00;57;-59;-8699
33891;0.00;0.04;-1.00;0.00;62;-56;-8695
33911;0.00;0.04;-1.00;0.00;58;-60;-8697
33931;0.00;0.04;-1.00;0.00;53;-63;-8692
33949;0.00;0.04;-1.00;0.00;58;-63;-8694
33969;0.00;0.04;-1.00;0.00;61;-57;-8699
33989;0.00;0.04;-1.00;0.00;63;-60;-8701
34008;0.00;0.04;-1.00;0.00;70;-62;-8694
34027;0.00;0.04;-1.00;0.00;67;-64;-8695
34046;0.00;0.04;-1.00;0.00;67;-62;-8704
34070;0.00;0.04;-1.00;0.00;63;-59;-8706
34089;0.00;0.04;-1.00;0.00;62;-58;-8701
34111;0.00;0.04;-1.00;0.00;68;-59;-8697
34131;0.00;0.04;-1.00;0.00;67;-59;-8697
34157;0.00;0.04;-1.00;0.00;64;-58;-8698
34175;0.00;0.04;-1.00;0.00;63;-60;-8699
34195;0.00;0.04;-1.00;0.00;60;-59;-8699
34214;0.00;0.04;-1.00;0.00;52;-56;-8702
34234;0.00;0.04;-1.00;0.00;50;-60;-8703
34253;0.00;0.04;-1.00;0.00;52;-59;-8697
34273;0.00;0.04;-1.00;0.00;54;-58;-8694
34292;0.00;0.04;-1.00;0.00;55;-58;-8695
34324;0.00;0.04;-1.00;0.00;59;-50;-8696
34344;0.00;0.04;-1.00;0.00;56;-49;-8708
34364;0.00;0.04;-1.00;0.00;56;-48;-8708
34382;0.00;0.04;-1.00;0.00;53;-46;-8706
34402;0.00;0.04;-1.00;0.00;60;-52;-8698
34422;0.00;0.04;-1.00;0.00;63;-58;-8699
34442;0.00;0.04;-1.00;0.00;61;-57;-8701
34460;0.00;0.04;-1.00;0.00;64;-56;-8705
34480;0.00;0.04;-1.00;0.00;63;-55;-8705
34501;0.00;0.04;-1.00;0.00;60;-56;-8709
34520;0.00;0.04;-1.00;0.00;59;-58;-8699
34538;0.00;0.04;-1.00;0.00;57;-58;-8700
34557;0.00;0.04;-1.00;0.00;56;-59;-8694
34583;0.00;0.04;-1.00;0.00;60;-55;-8691
34601;0.00;0.04;-1.00;0.00;60;-56;-8689
34619;0.00;0.04;-1.00;0.00;60;-60;-8694
34640;0.00;0.04;-1.00;0.00;61;-57;-8698
34661;0.00;0.04;-1.00;0.00;62;-55;-8695
34679;0.00;0.04;-1.00;0.00;63;-52;-8692
34698;0.00;0.04;-1.00;0.00;63;-55;-8695
34718;0.00;0.04;-1.00;0.00;59;-53;-8700
34739;0.00;0.04;-1.00;0.00;55;-52;-8695
34757;0.00;0.04;-1.00;0.00;56;-52;-8702
34775;0.00;0.04;-1.00;0.00;54;-53;-8702
34797;0.00;0.04;-1.00;0.00;56;-56;-8707
34823;0.00;0.04;-1.00;0.00;61;-56;-8699
34841;0.00;0.04;-1.00;0.00;62;-53;-8702
34860;0.00;0.04;-1.00;0.00;65;-52;-8700
34881;0.00;0.04;-1.00;0.00;63;-49;-8698
34900;0.00;0.04;-1.00;0.00;59;-50;-8693
34919;0.00;0.04;-1.00;0.00;60;-53;-8691
34938;0.00;0.04;-1.00;0.00;58;-49;-8698
34959;0.00;0.04;-1.00;0.00;57;-48;-8693
34978;0.00;0.04;-1.00;0.00;64;-48;-8683
34997;0.00;0.04;-1.00;0.00;63;-56;-8684
35016;0.00;0.04;-1.00;0.00;64;-54;-8690
35037;0.00;0.04;-1.00;0.00;69;-54;-8694
35056;0.00;0.04;-1.00;0.00;63;-58;-8701
35079;0.00;0.04;-1.00;0.00;59;-58;-8703
35098;0.00;0.04;-1.00;0.00;59;-58;-8699
35117;0.00;0.04;-1.00;0.00;61;-57;-8702
35137;0.00;0.04;-1.00;0.00;61;-58;-8704
35156;0.00;0.04;-1.00;0.00;62;-57;-8708
35175;0.00;0.04;-1.00;0.00;62;-58;-8706
35194;0.00;0.04;-1.00;0.00;63;-53;-8704
35215;0.00;0.04;-1.00;0.00;65;-55;-8705
35234;0.00;0.04;-1.00;0.00;64;-55;-8703
35254;0.00;0.04;-1.00;0.00;59;-55;-8700
35274;0.00;0.04;-1.00;0.00;56;-57;-8693
35343;0.00;0.04;-1.00;0.00;58;-56;-8698
35363;0.00;0.04;-1.00;0.00;57;-57;-8696
35382;0.00;0.04;-1.00;0.00;54;-56;-8705
35402;0.00;0.04;-1.00;0.00;56;-52;-8702
35423;0.00;0.04;-1.00;0.00;60;-54;-8702
35441;0.00;0.04;-1.00;0.00;60;-56;-8703
35459;0.00;0.04;-1.00;0.00;62;-59;-8696
35480;0.00;0.04;-1.00;0.00;67;-57;-8693
35500;0.00;0.04;-1.00;0.00;62;-54;-8692
35519;0.00;0.04;-1.00;0.00;60;-51;-8701
35537;0.00;0.04;-1.00;0.00;61;-52;-8698
35558;0.00;0.04;-1.00;0.00;64;-51;-8694
35578;0.00;0.04;-1.00;0.00;68;-50;-8698
35597;0.00;0.04;-1.00;0.00;67;-46;-8699
35619;0.00;0.04;-1.00;0.00;66;-49;-8696
35640;0.00;0.04;-1.00;0.00;66;-50;-8698
35659;0.00;0.04;-1.00;0.00;70;-53;-8699
35677;0.00;0.04;-1.00;0.00;70;-55;-8702
35697;0.00;0.04;-1.00;0.00;63;-52;-8702
35718;0.00;0.04;-1.00;0.00;60;-50;-8704
35737;0.00;0.04;-1.00;0.00;60;-52;-8696
35754;0.00;0.04;-1.00;0.00;61;-50;-8695
35774;0.00;0.04;-1.00;0.00;63;-48;-8684
35795;0.00;0.04;-1.00;0.00;64;-48;-8683
35814;0.00;0.04;-1.00;0.00;64;-50;-8687
35842;0.00;0.04;-1.00;0.00;58;-56;-8691
36872;0.00;0.04;-1.00;0.00;64;-62;-8699
36891;0.00;0.04;-1.00;0.00;65;-62;-8702
36911;0.00;0.04;-1.00;0.00;65;-61;-8701
36930;0.00;0.04;-1.00;0.00;66;-59;-8697
36949;0.00;0.04;-1.00;0.00;63;-60;-8698
36969;0.00;0.04;-1.00;0.00;64;-57;-8691
36988;0.00;0.04;-1.00;0.00;65;-54;-8694
37008;0.00;0.04;-1.00;0.00;61;-50;-8694
37027;0.00;0.04;-1.00;0.00;57;-53;-8698
37047;0.00;0.04;-1.00;0.00;62;-51;-8700
37066;0.00;0.04;-1.00;0.00;56;-49;-8696
37086;0.00;0.04;-1.00;0.00;61;-53;-8695
37105;0.00;0.04;-1.00;0.00;65;-55;-8692
37128;0.00;0.04;-1.00;0.00;66;-53;-8695
37148;0.00;0.04;-1.00;0.00;65;-51;-8696
37168;0.00;0.04;-1.00;0.00;70;-49;-8698
37185;0.00;0.04;-1.00;0.00;69;-53;-8699
37205;0.00;0.04;-1.00;0.00;63;-54;-8701
37226;0.00;0.04;-1.00;0.00;60;-53;-8698
37245;0.00;0.04;-1.00;0.00;65;-50;-8700
37263;0.00;0.04;-1.00;0.00;66;-55;-8697
37282;0.00;0.04;-1.00;0.00;69;-51;-8699
37304;0.00;0.04;-1.00;0.00;71;-51;-8694
37323;0.00;0.04;-1.00;0.00;66;-53;-8698
37341;0.00;1.02;-0.78;0.13;14848;-29697;-8192
37372;0.00;0.04;-1.00;0.00;56;-60;-8695
37393;0.00;0.04;-1.00;0.00;53;-59;-8697
37410;0.00;0.04;-1.00;0.00;51;-59;-8698
37429;0.00;0.04;-1.00;0.00;54;-59;-8695
37449;0.00;0.04;-1.00;0.00;57;-57;-8691
37470;0.00;0.04;-1.00;0.00;60;-54;-8688
37488;0.00;0.04;-1.00;0.00;58;-52;-8683
37506;0.00;0.04;-1.00;0.00;61;-57;-8683
37527;0.00;0.04;-1.00;0.00;61;-54;-8690
37547;0.00;0.04;-1.00;0.00;61;-52;-8691
37567;0.00;0.04;-1.00;0.00;62;-46;-8698
37586;0.00;0.04;-1.00;0.00;63;-46;-8700
37613;0.00;0.04;-1.00;0.00;65;-48;-8700
37630;0.00;0.04;-1.00;0.00;63;-46;-8700
37649;0.00;0.04;-1.00;0.00;66;-49;-8699
37667;0.00;0.04;-1.00;0.00;62;-50;-8703
37688;0.00;0.04;-1.00;0.00;58;-50;-8709
37708;0.00;0.04;-1.00;0.00;54;-52;-8710
37727;0.00;0.04;-1.00;0.00;54;-55;-8699
37745;0.00;0.04;-1.00;0.00;53;-57;-8697
37766;0.00;0.04;-1.00;0.00;48;-61;-8700
37786;0.00;0.04;-1.00;0.00;44;-61;-8701
37804;0.00;0.04;-1.00;0.00;46;-59;-8692
37823;0.00;0.04;-1.00;0.00;52;-57;-8693
37843;0.00;0.04;-1.00;0.00;56;-56;-8699
37872;0.00;0.04;-1.00;0.00;59;-57;-8697
37889;0.00;0.04;-1.00;0.00;59;-54;-8698
37909;0.00;0.04;-1.00;0.00;56;-51;-8696
37930;0.00;0.04;-1.00;0.00;56;-57;-8702
37950;0.00;0.04;-1.00;0.00;59;-58;-8700
37967;0.00;0.04;-1.00;0.00;57;-59;-8704
37987;0.00;0.04;-1.00;0.00;59;-56;-8699
38008;0.00;0.04;-1.00;0.00;62;-54;-8700
38027;0.00;0.04;-1.00;0.00;62;-52;-8705
38045;0.00;0.04;-1.00;0.00;62;-54;-8698
38065;0.00;0.04;-1.00;0.00;62;-55;-8697
38086;0.00;0.04;-1.00;0.00;65;-56;-8695
38111;0.00;0.04;-1.00;0.00;62;-57;-8701
38169;0.00;0.04;-1.00;0.00;57;-55;-8698
38186;0.00;0.04;-1.00;0.00;54;-54;-8699
38207;0.00;0.04;-1.00;0.00;56;-52;-8704
38226;0.00;0.04;-1.00;0.00;58;-54;-8696
38246;0.00;0.04;-1.00;0.00;56;-52;-8695
38265;0.00;0.04;-1.00;0.00;56;-53;-8695
38285;0.00;0.04;-1.00;0.00;57;-57;-8693
38304;0.00;0.04;-1.00;0.00;55;-57;-8700
38332;0.00;0.04;-1.00;0.00;62;-53;-8701
38350;0.00;0.04;-1.00;0.00;64;-57;-8702
38371;0.00;0.04;-1.00;0.00;64;-59;-8701
38390;0.00;0.04;-1.00;0.00;63;-59;-8703
38414;0.00;0.04;-1.00;0.00;60;-60;-8703
38431;0.00;0.04;-1.00;0.00;59;-58;-8698
38452;0.00;0.04;-1.00;0.00;58;-59;-8693
38472;0.00;0.04;-1.00;0.00;59;-59;-8693
38492;0.00;0.04;-1.00;0.00;60;-57;-8695
38510;0.00;0.04;-1.00;0.00;58;-53;-8695
38529;0.00;0.04;-1.00;0.00;54;-49;-8698
38550;0.00;0.04;-1.00;0.00;57;-45;-8700
38569;0.00;0.04;-1.00;0.00;58;-49;-8697
38588;0.00;0.04;-1.00;0.00;64;-54;-8704
38607;0.00;0.04;-1.00;0.00;63;-57;-8702
38629;0.00;0.04;-1.00;0.00;55;-57;-8705
38650;0.00;0.04;-1.00;0.00;58;-55;-8711
38669;0.00;0.04;-1.00;0.00;60;-55;-8714
38690;0.00;0.04;-1.00;0.00;62;-58;-8710
38711;0.00;0.04;-1.00;0.00;62;-57;-8705
38729;0.00;0.04;-1.00;0.00;66;-57;-8709
38747;0.00;0.04;-1.00;0.00;64;-53;-8712
38768;0.00;0.04;-1.00;0.00;59;-53;-8709
38789;0.00;0.04;-1.00;0.00;57;-52;-8713
38807;0.00;0.04;-1.00;0.00;54;-52;-8712
38832;0.00;0.04;-1.00;0.00;63;-56;-8691
38853;0.00;0.04;-1.00;0.00;64;-53;-8696
38874;0.00;0.04;-1.00;0.00;64;-54;-8694
38891;0.00;0.04;-1.00;0.00;66;-57;-8688
38913;0.00;0.04;-1.00;0.00;62;-59;-8687
38935;0.00;0.04;-1.00;0.00;59;-48;-8689
38954;0.00;0.04;-1.00;0.00;55;-44;-8694
38972;0.00;0.04;-1.00;0.00;53;-44;-8693
38992;0.00;0.04;-1.00;0.00;57;-47;-8695
39013;0.00;0.04;-1.00;0.00;60;-52;-8698
39032;0.00;0.04;-1.00;0.00;53;-55;-8700
39051;0.00;0.04;-1.00;0.00;51;-55;-8699
39070;0.00;0.04;-1.00;0.00;54;-57;-8697
39091;0.00;0.04;-1.00;0.00;55;-57;-8694
39110;0.00;0.04;-1.00;0.00;56;-58;-8700
39128;0.00;0.04;-1.00;0.00;60;-53;-8701
39152;0.00;0.04;-1.00;0.00;58;-56;-8702
39171;0.00;0.04;-1.00;0.00;59;-57;-8704
39191;0.00;0.04;-1.00;0.00;60;-57;-8705
39210;0.00;0.04;-1.00;0.00;61;-56;-8699
39230;0.00;0.04;-1.00;0.00;63;-55;-8705
39250;0.00;0.04;-1.00;0.00;65;-53;-8707
39270;0.00;0.04;-1.00;0.00;60;-53;-8706
39289;0.00;0.04;-1.00;0.00;64;-54;-8700
39309;0.00;0.04;-1.00;0.00;65;-56;-8697
39330;0.00;0.04;-1.00;0.00;60;-58;-8699
39350;0.00;0.04;-1.00;0.00;57;-54;-8692
39370;0.00;0.04;-1.00;0.00;57;-57;-8690
39389;0.00;0.04;-1.00;0.00;60;-59;-8692
39411;0.00;0.04;-1.00;0.00;64;-57;-8687
39433;0.00;0.04;-1.00;0.00;61;-54;-8690
39452;0.00;0.04;-1.00;0.00;63;-51;-8696
39469;0.00;0.04;-1.00;0.00;57;-52;-8703
39490;0.00;0.04;-1.00;0.00;55;-53;-8701
39510;0.00;0.04;-1.00;0.00;59;-54;-8698
39530;0.00;0.04;-1.00;0.00;64;-50;-8700
39548;0.00;0.04;-1.00;0.00;64;-45;-8697
39568;0.00;0.04;-1.00;0.00;62;-46;-8688
39588;0.00;0.04;-1.00;0.00;60;-50;-8686
39608;0.00;0.04;-1.00;0.00;62;-51;-8687
39626;0.00;0.04;-1.00;0.00;62;-51;-8686
39650;0.00;0.04;-1.00;0.00;63;-50;-8687
39670;0.00;0.04;-1.00;0.00;61;-52;-8689
39689;0.00;0.04;-1.00;0.00;59;-55;-8694
39707;0.00;0.04;-1.00;0.00;63;-54;-8689
39729;0.00;0.04;-1.00;0.00;65;-54;-8686
39749;0.00;0.04;-1.00;0.00;66;-49;-8688
39766;0.00;0.04;-1.00;0.00;71;-50;-8691
39785;0.00;0.04;-1.00;0.00;68;-49;-8690
39806;0.00;0.04;-1.00;0.00;65;-50;-8693
39831;0.00;0.04;-1.00;0.00;56;-54;-8694
39849;0.00;0.04;-1.00;0.00;55;-55;-8695
39867;0.00;0.04;-1.00;0.00;58;-56;-8693
39888;0.00;0.04;-1.00;0.00;57;-56;-8692
39913;0.00;0.04;-1.00;0.00;58;-57;-8696
39932;0.00;0.04;-1.00;0.00;59;-54;-8696
39992;0.00;0.04;-1.00;0.00;61;-54;-8697
40011;0.00;0.04;-1.00;0.00;59;-53;-8699
40031;0.00;0.04;-1.00;0.00;60;-51;-8693
41051;0.00;0.04;-1.00;0.00;64;-55;-8700
41071;0.00;0.04;-1.00;0.00;61;-51;-8696
41096;0.00;0.04;-1.00;0.00;63;-54;-8700
41114;0.00;0.04;-1.00;0.00;67;-51;-8704
41132;0.00;0.04;-1.00;0.00;63;-52;-8702
41152;0.00;0.04;-1.00;0.00;61;-50;-8703
41172;0.00;0.04;-1.00;0.00;64;-52;-8700
41195;0.00;0.04;-1.00;0.00;63;-54;-8697
41214;0.00;0.04;-1.00;0.00;61;-54;-8705
41234;0.00;0.04;-1.00;0.00;64;-53;-8699
41253;0.00;0.04;-1.00;0.00;62;-51;-8703
41273;0.00;0.04;-1.00;0.00;65;-55;-8705
41300;0.00;0.04;-1.00;0.00;58;-49;-8695
41318;0.00;0.04;-1.00;0.00;58;-49;-8698
41338;0.00;0.04;-1.00;0.00;52;-49;-8702
41359;0.00;0.04;-1.00;0.00;49;-51;-8702
41378;0.00;0.04;-1.00;0.00;47;-48;-8706
41396;0.00;0.04;-1.00;0.00;48;-52;-8708
41416;0.00;0.04;-1.00;0.00;52;-54;-8699
41437;0.00;0.04;-1.00;0.00;50;-58;-8698
41458;0.00;0.04;-1.00;0.00;51;-56;-8701
41477;0.00;0.04;-1.00;0.00;51;-56;-8703
41498;0.00;0.04;-1.00;0.00;52;-58;-8700
41519;0.00;0.04;-1.00;0.00;56;-56;-8694
41536;0.00;0.04;-1.00;0.00;58;-48;-8695
41554;0.00;0.04;-1.00;0.00;57;-47;-8706
41576;0.00;0.04;-1.00;0.00;56;-47;-8713
41596;0.00;0.04;-1.00;0.00;57;-46;-8710
41614;0.00;0.04;-1.00;0.00;57;-50;-8707
41632;0.00;0.04;-1.00;0.00;56;-52;-8707
41654;0.00;0.04;-1.00;0.00;53;-54;-8697
41674;0.00;0.04;-1.00;0.00;53;-52;-8695
41695;0.00;0.04;-1.00;0.00;57;-55;-8694
41714;0.00;0.04;-1.00;0.00;57;-55;-8689
41735;0.00;0.04;-1.00;0.00;59;-53;-8686
41754;0.00;0.04;-1.00;0.00;61;-51;-8688
41772;0.00;0.04;-1.00;0.00;58;-53;-8679
41800;0.00;0.04;-1.00;0.00;63;-56;-8700
41821;0.00;0.04;-1.00;0.00;63;-55;-8699
41840;0.00;0.04;-1.00;0.00;65;-54;-8698
41858;0.00;0.04;-1.00;0.00;62;-53;-8700
41878;0.00;0.04;-1.00;0.00;62;-55;-8698
41898;0.00;0.04;-1.00;0.00;60;-56;-8693
41918;0.00;0.04;-1.00;0.00;59;-54;-8688
41936;0.00;0.04;-1.00;0.00;59;-56;-8685
41960;0.00;0.04;-1.00;0.00;63;-59;-8687
41979;0.00;0.04;-1.00;0.00;61;-59;-8687
41999;0.00;0.04;-1.00;0.00;61;-59;-8688
42018;0.00;0.04;-1.00;0.00;59;-58;-8695
42038;0.00;0.04;-1.00;0.00;58;-57;-8692
42057;0.00;0.04;-1.00;0.00;56;-58;-8694
42077;0.00;0.04;-1.00;0.00;54;-56;-8696
42096;0.00;0.04;-1.00;0.00;53;-53;-8699
42115;0.00;0.04;-1.00;0.00;52;-51;-8697
42135;0.00;0.04;-1.00;0.00;56;-50;-8695
42154;0.00;0.04;-1.00;0.00;56;-50;-8693
42174;0.00;0.04;-1.00;0.00;56;-49;-8700
42207;0.00;0.04;-1.00;0.00;56;-47;-8698
42225;0.00;0.04;-1.00;0.00;59;-46;-8694
42245;0.00;0.04;-1.00;0.00;67;-49;-8697
42265;0.00;0.04;-1.00;0.00;69;-53;-8696
42290;0.00;0.04;-1.00;0.00;59;-61;-8695
42308;0.00;0.04;-1.00;0.00;61;-58;-8694
42328;0.00;0.04;-1.00;0.00;56;-53;-8699
42349;0.00;0.04;-1.00;0.00;55;-54;-8705
42367;0.00;0.04;-1.00;0.00;64;-53;-8705
42386;0.00;0.04;-1.00;0.00;62;-53;-8706
42407;0.00;0.04;-1.00;0.00;62;-55;-8711
42427;0.00;0.04;-1.00;0.00;65;-56;-8711
42445;0.00;0.04;-1.00;0.00;64;-57;-8699
42468;0.00;0.04;-1.00;0.00;65;-53;-8693
42488;0.00;0.04;-1.00;0.00;59;-56;-8703
42508;0.00;0.04;-1.00;0.00;54;-54;-8707
42526;0.00;0.04;-1.00;0.00;59;-56;-8705
42546;0.00;0.04;-1.00;0.00;62;-57;-8700
42567;0.00;0.04;-1.00;0.00;60;-59;-8694
42586;0.00;0.04;-1.00;0.00;63;-58;-8698
42604;0.00;0.04;-1.00;0.00;66;-57;-8700
42623;0.00;0.04;-1.00;0.00;64;-59;-8697
42645;0.00;0.04;-1.00;0.00;58;-60;-8696
42663;0.00;0.04;-1.00;0.00;59;-57;-8694
42682;0.00;0.04;-1.00;0.00;59;-57;-8699
42705;0.00;0.04;-1.00;0.00;58;-54;-8700
42727;0.00;0.04;-1.00;0.00;58;-52;-8700
42747;0.00;0.04;-1.00;0.00;59;-54;-8704
42809;0.00;0.04;-1.00;0.00;57;-57;-8703
42828;0.00;0.04;-1.00;0.00;58;-59;-8697
42848;0.00;0.04;-1.00;0.00;61;-58;-8696
42867;0.00;0.04;-1.00;0.00;59;-58;-8693
42887;0.00;0.04;-1.00;0.00;60;-54;-8694
42905;0.00;0.04;-1.00;0.00;59;-59;-8691
42924;0.00;0.04;-1.00;0.00;58;-62;-8685
42945;0.00;0.04;-1.00;0.00;61;-60;-8691
42964;0.00;0.04;-1.00;0.00;57;-62;-8697
42983;0.00;0.04;-1.00;0.00;55;-61;-8701
43006;0.00;0.04;-1.00;0.00;59;-61;-8702
43027;0.00;0.04;-1.00;0.00;62;-58;-8696
43045;0.00;0.04;-1.00;0.00;63;-60;-8691
43064;0.00;0.04;-1.00;0.00;58;-57;-8685
43084;0.00;0.04;-1.00;0.00;55;-52;-8690
43105;0.00;0.04;-1.00;0.00;58;-50;-8698
43123;0.00;0.04;-1.00;0.00;61;-47;-8694
43141;0.00;0.04;-1.00;0.00;56;-48;-8694
43162;0.00;0.04;-1.00;0.00;56;-48;-8696
43183;0.00;0.04;-1.00;0.00;60;-51;-8696
43201;0.00;0.04;-1.00;0.00;64;-54;-8698
43218;0.00;0.04;-1.00;0.00;64;-53;-8700
43244;0.00;0.04;-1.00;0.00;63;-56;-8700
43263;0.00;0.04;-1.00;0.00;64;-58;-8705
43282;0.00;0.04;-1.00;0.00;63;-55;-8701
43309;0.00;0.04;-1.00;0.00;59;-62;-8692
43331;0.00;0.04;-1.00;0.00;63;-66;-8692
43349;0.00;0.04;-1.00;0.00;61;-64;-8692
43368;0.00;0.04;-1.00;0.00;63;-64;-8690
43387;0.00;0.04;-1.00;0.00;62;-62;-8696
43409;0.00;0.04;-1.00;0.00;57;-62;-8695
43428;0.00;0.04;-1.00;0.00;58;-56;-8693
43448;0.00;0.04;-1.00;0.00;58;-52;-8691
43468;0.00;0.04;-1.00;0.00;53;-58;-8684
43494;0.00;0.04;-1.00;0.00;56;-56;-8685
43514;0.00;0.04;-1.00;0.00;58;-53;-8684
43535;0.00;0.04;-1.00;0.00;60;-53;-8687
43553;0.00;0.04;-1.00;0.00;62;-52;-8685
43574;0.00;0.04;-1.00;0.00;64;-54;-8684
43593;0.00;0.04;-1.00;0.00;66;-54;-8686
43613;0.00;0.04;-1.00;0.00;65;-56;-8692
43632;0.00;0.04;-1.00;0.00;58;-55;-8691
43651;0.00;0.04;-1.00;0.00;59;-52;-8699
43671;0.00;0.04;-1.00;0.00;59;-51;-8708
43690;0.00;0.04;-1.00;0.00;59;-49;-8709
43710;0.00;0.04;-1.00;0.00;57;-52;-8712
43729;0.00;0.04;-1.00;0.00;54;-52;-8710
43754;0.00;0.04;-1.00;0.00;57;-50;-8706
43773;0.00;0.04;-1.00;0.00;58;-53;-8703
43799;0.00;0.04;-1.00;0.00;62;-59;-8695
43818;0.00;0.04;-1.00;0.00;64;-60;-8693
43840;0.00;0.04;-1.00;0.00;65;-66;-8694
43859;0.00;0.04;-1.00;0.00;62;-65;-8695
43877;0.00;0.04;-1.00;0.00;59;-58;-8690
43897;0.00;0.04;-1.00;0.00;56;-59;-8689
43918;0.00;0.04;-1.00;0.00;56;-56;-8690
43937;0.00;0.04;-1.00;0.00;51;-56;-8693
43956;0.00;0.04;-1.00;0.00;48;-57;-8690
43975;0.00;0.04;-1.00;0.00;46;-58;-8692
43996;0.00;0.04;-1.00;0.00;50;-60;-8690
44018;0.00;0.04;-1.00;0.00;56;-61;-8689
44037;0.00;0.04;-1.00;0.00;61;-58;-8693
44058;0.00;0.04;-1.00;0.00;63;-59;-8694
44079;0.00;0.04;-1.00;0.00;61;-59;-8694
44096;0.00;0.04;-1.00;0.00;60;-63;-8697
44114;0.00;0.04;-1.00;0.00;60;-60;-8700
44136;0.00;0.04;-1.00;0.00;62;-59;-8701
44156;0.00;0.04;-1.00;0.00;61;-57;-8703
44175;0.00;0.04;-1.00;0.00;59;-51;-8702
44193;0.00;0.04;-1.00;0.00;57;-45;-8707
45218;0.00;0.04;-1.00;0.00;53;-48;-8699
45239;0.00;0.04;-1.00;0.00;56;-51;-8690
45260;0.00;0.04;-1.00;0.00;59;-54;-8691
45280;0.00;0.04;-1.00;0.00;57;-55;-8698
45308;0.00;0.04;-1.00;0.00;61;-64;-8696
45328;0.00;0.04;-1.00;0.00;61;-63;-8699
45346;0.00;0.04;-1.00;0.00;61;-61;-8697
45366;0.00;0.04;-1.00;0.00;62;-58;-8695
45387;0.00;0.04;-1.00;0.00;60;-57;-8704
45407;0.00;0.04;-1.00;0.00;63;-59;-8705
45424;0.00;0.04;-1.00;0.00;64;-57;-8698
45443;0.00;0.04;-1.00;0.00;63;-57;-8700
45465;0.00;0.04;-1.00;0.00;60;-54;-8696
45484;0.00;0.04;-1.00;0.00;57;-55;-8696
45503;0.00;0.04;-1.00;0.00;55;-52;-8692
45526;0.00;0.04;-1.00;0.00;55;-55;-8692
45547;0.00;0.04;-1.00;0.00;56;-52;-8697
45567;0.00;0.04;-1.00;0.00;63;-57;-8704
45638;0.00;0.04;-1.00;0.00;63;-59;-8703
45658;0.00;0.04;-1.00;0.00;64;-61;-8694
45677;0.00;0.04;-1.00;0.00;67;-61;-8696
45696;0.00;0.04;-1.00;0.00;65;-65;-8698
45716;0.00;0.04;-1.00;0.00;59;-60;-8698
45734;0.00;0.04;-1.00;0.00;59;-58;-8702
45758;0.00;0.04;-1.00;0.00;58;-58;-8700
45778;0.00;0.04;-1.00;0.00;59;-60;-8696
45798;0.00;0.04;-1.00;0.00;59;-61;-8690
45819;0.00;0.04;-1.00;0.00;57;-59;-8690
45841;0.00;0.04;-1.00;0.00;57;-56;-8690
45861;0.00;0.04;-1.00;0.00;58;-53;-8692
45879;0.00;0.04;-1.00;0.00;58;-54;-8704
45897;0.00;0.04;-1.00;0.00;59;-55;-8697
45919;0.00;0.04;-1.00;0.00;60;-56;-8690
45939;0.00;0.04;-1.00;0.00;60;-55;-8685
45958;0.00;0.04;-1.00;0.00;63;-57;-8687
45976;0.00;0.04;-1.00;0.00;66;-51;-8686
45996;0.00;0.04;-1.00;0.00;63;-49;-8693
46017;0.00;0.04;-1.00;0.00;61;-50;-8701
46035;0.00;0.04;-1.00;0.00;58;-50;-8702
46054;0.00;0.04;-1.00;0.00;60;-53;-8695
46078;0.00;0.04;-1.00;0.00;62;-53;-8693
46098;0.00;0.04;-1.00;0.00;60;-50;-8689
46116;0.00;0.04;-1.00;0.00;62;-53;-8697
46136;0.00;0.04;-1.00;0.00;65;-56;-8701
46156;0.00;0.04;-1.00;0.00;60;-58;-8697
46176;0.00;0.04;-1.00;0.00;61;-60;-8701
46194;0.00;0.04;-1.00;0.00;61;-59;-8698
46214;0.00;0.04;-1.00;0.00;61;-60;-8698
46235;0.00;0.04;-1.00;0.00;61;-62;-8698
46259;0.00;0.04;-1.00;0.00;53;-60;-8697
46276;0.00;0.04;-1.00;0.00;58;-56;-8692
46295;0.00;0.04;-1.00;0.00;63;-50;-8695
46320;0.00;0.04;-1.00;0.00;64;-50;-8692
46339;0.00;0.04;-1.00;0.00;65;-50;-8689
46359;0.00;0.04;-1.00;0.00;58;-52;-8689
46377;0.00;0.04;-1.00;0.00;58;-56;-8694
46398;0.00;0.04;-1.00;0.00;61;-58;-8695
46416;0.00;0.04;-1.00;0.00;58;-59;-8699
46437;0.00;0.04;-1.00;0.00;55;-56;-8698
46455;0.00;0.04;-1.00;0.00;55;-61;-8696
46475;0.00;0.04;-1.00;0.00;52;-63;-8698
46494;0.00;0.04;-1.00;0.00;53;-59;-8699
46514;0.00;0.04;-1.00;0.00;60;-54;-8702
46533;0.00;0.04;-1.00;0.00;61;-54;-8703
46552;0.00;0.04;-1.00;0.00;59;-57;-8703
46576;0.00;0.04;-1.00;0.00;61;-59;-8703
46595;0.00;0.04;-1.00;0.00;62;-59;-8704
46614;0.00;0.04;-1.00;0.00;59;-53;-8710
46633;0.00;0.04;-1.00;0.00;57;-54;-8713
46654;0.00;0.04;-1.00;0.00;53;-60;-8712
46673;0.00;0.04;-1.00;0.00;56;-60;-8706
46692;0.00;0.04;-1.00;0.00;57;-61;-8700
46711;0.00;0.04;-1.00;0.00;57;-59;-8690
46732;0.00;0.04;-1.00;0.00;57;-59;-8690
46758;0.00;0.04;-1.00;0.00;67;-45;-8694
46777;0.00;0.04;-1.00;0.00;67;-48;-8692
46796;0.00;0.04;-1.00;0.00;67;-48;-8694
46821;0.00;0.04;-1.00;0.00;69;-50;-8700
46839;0.00;0.04;-1.00;0.00;70;-51;-8695
46857;0.00;0.04;-1.00;0.00;73;-48;-8696
46878;0.00;0.04;-1.00;0.00;73;-53;-8696
46899;0.00;0.04;-1.00;0.00;69;-56;-8690
46918;0.00;0.04;-1.00;0.00;63;-57;-8693
46938;0.00;0.04;-1.00;0.00;64;-59;-8696
46962;0.00;0.04;-1.00;0.00;66;-57;-8694
46982;0.00;0.04;-1.00;0.00;63;-61;-8694
47000;0.00;0.04;-1.00;0.00;62;-60;-8694
47017;0.00;0.04;-1.00;0.00;61;-58;-8694
47039;0.00;0.04;-1.00;0.00;59;-56;-8698
47059;0.00;0.04;-1.00;0.00;60;-54;-8702
47080;0.00;0.04;-1.00;0.00;57;-56;-8698
47100;0.00;0.04;-1.00;0.00;58;-56;-8699
47121;0.00;0.04;-1.00;0.00;58;-57;-8696
47140;0.00;0.04;-1.00;0.00;59;-56;-8693
47158;0.00;0.04;-1.00;0.00;61;-52;-8695
47177;0.00;0.04;-1.00;0.00;62;-47;-8688
47199;0.00;0.04;-1.00;0.00;65;-52;-8687
47218;0.00;0.04;-1.00;0.00;63;-56;-8688
47235;0.00;0.04;-1.00;0.00;-58;-8688;-19862
47257;0.00;0.04;-1.00;0.00;63;-55;-8698
47279;0.00;0.04;-1.00;0.00;63;-54;-8700
47297;0.00;0.04;-1.00;0.00;63;-54;-8698
47319;0.00;0.04;-1.00;0.00;61;-59;-8700
47339;0.00;0.04;-1.00;0.00;60;-56;-8696
47359;0.00;0.04;-1.00;0.00;61;-57;-8698
47380;0.00;0.04;-1.00;0.00;62;-58;-8700
47588;0.00;0.04;-1.00;0.00;58;-57;-8690
47606;0.00;0.04;-1.00;0.00;58;-57;-8692
47627;0.00;0.04;-1.00;0.00;53;-56;-8691
47647;0.00;0.04;-1.00;0.00;57;-53;-8687
47666;0.00;0.04;-1.00;0.00;56;-58;-8690
47684;0.00;0.04;-1.00;0.00;56;-60;-8690
47704;0.00;0.04;-1.00;0.00;56;-60;-8694
47725;0.00;0.04;-1.00;0.00;58;-60;-8700
47743;0.00;0.04;-1.00;0.00;56;-57;-8703
47766;0.00;0.04;-1.00;0.00;57;-61;-8704
47785;0.00;0.04;-1.00;0.00;57;-64;-8701
47806;0.00;0.04;-1.00;0.00;58;-59;-8694
47824;0.00;0.04;-1.00;0.00;56;-56;-8702
47844;0.00;0.04;-1.00;0.00;63;-57;-8699
47863;0.00;0.04;-1.00;0.00;64;-55;-8704
47884;0.00;0.04;-1.00;0.00;66;-54;-8701
47902;0.00;0.04;-1.00;0.00;62;-56;-8703
47922;0.00;0.04;-1.00;0.00;64;-52;-8703
47941;0.00;0.04;-1.00;0.00;64;-56;-8704
47962;0.00;0.04;-1.00;0.00;63;-59;-8703
47980;0.00;0.04;-1.00;0.00;62;-60;-8696
48006;0.00;0.04;-1.00;0.00;62;-57;-8695
48025;0.00;0.04;-1.00;0.00;62;-59;-8688
48045;0.00;0.04;-1.00;0.00;66;-56;-8694
48064;0.00;0.04;-1.00;0.00;67;-54;-8695
48087;0.00;0.04;-1.00;0.00;66;-54;-8704
48107;0.00;0.04;-1.00;0.00;64;-55;-8697
48127;0.00;0.04;-1.00;0.00;64;-58;-8700
48146;0.00;0.04;-1.00;0.00;69;-63;-8703
48165;0.00;0.04;-1.00;0.00;65;-63;-8697
48185;0.00;0.04;-1.00;0.00;61;-66;-8699
48205;0.00;0.04;-1.00;0.00;59;-58;-8698
48224;0.00;0.04;-1.00;0.00;59;-55;-8697
48243;0.00;0.04;-1.00;0.00;59;-58;-8695
48261;0.00;0.04;-1.00;0.00;61;-58;-8695
48281;0.00;0.04;-1.00;0.00;58;-54;-8694
48299;0.00;0.04;-1.00;0.00;64;-50;-8694
48318;0.00;0.04;-1.00;0.00;68;-55;-8702
48338;0.00;0.04;-1.00;0.00;62;-56;-8704
48359;0.00;0.04;-1.00;0.00;62;-52;-8706
48377;0.00;0.04;-1.00;0.00;62;-49;-8711
48396;0.00;0.04;-1.00;0.00;60;-48;-8705
48416;0.00;0.04;-1.00;0.00;57;-49;-8704
48439;0.00;0.04;-1.00;0.00;58;-49;-8705
48458;0.00;0.04;-1.00;0.00;57;-55;-8706
48477;0.00;0.04;-1.00;0.00;59;-57;-8699
48500;0.00;0.04;-1.00;0.00;61;-58;-8698
48521;0.00;0.04;-1.00;0.00;61;-60;-8696
48539;0.00;0.04;-1.00;0.00;62;-60;-8697
49566;0.00;0.04;-1.00;0.00;58;-49;-8699
49597;0.00;0.04;-1.00;0.00;62;-59;-8699
49617;0.00;0.04;-1.00;0.00;62;-55;-8699
49636;0.00;0.04;-1.00;0.00;67;-57;-8692
49655;0.00;0.04;-1.00;0.00;65;-56;-8688
49675;0.00;0.04;-1.00;0.00;65;-57;-8687
49695;0.00;0.04;-1.00;0.00;63;-56;-8693
49714;0.00;0.04;-1.00;0.00;65;-58;-8687
49733;0.00;0.04;-1.00;0.00;69;-57;-8682
49757;0.00;0.04;-1.00;0.00;73;-57;-8686
49777;0.00;0.04;-1.00;0.00;69;-57;-8687
49795;0.00;0.04;-1.00;0.00;68;-54;-8678
49815;0.00;0.04;-1.00;0.00;68;-56;-8682
49834;0.00;0.04;-1.00;0.00;63;-56;-8686
49855;0.00;0.04;-1.00;0.00;63;-57;-8682
49873;0.00;0.04;-1.00;0.00;60;-51;-8677
49893;0.00;0.04;-1.00;0.00;55;-54;-8676
49913;0.00;0.04;-1.00;0.00;56;-57;-8675
49933;0.00;0.04;-1.00;0.00;57;-53;-8683
49952;0.00;0.04;-1.00;0.00;64;-53;-8691
49971;0.00;0.04;-1.00;0.00;67;-51;-8690
49991;0.00;0.04;-1.00;0.00;63;-52;-8692
50015;0.00;0.04;-1.00;0.00;64;-50;-8698
50034;0.00;0.04;-1.00;0.00;55;-51;-8701
50053;0.00;0.04;-1.00;0.00;52;-55;-8701
50073;0.00;0.04;-1.00;0.00;51;-49;-8698
50097;0.00;0.04;-1.00;0.00;63;-56;-8693
50115;0.00;0.04;-1.00;0.00;60;-52;-8695
50134;0.00;0.04;-1.00;0.00;60;-54;-8694
50154;0.00;0.04;-1.00;0.00;58;-53;-8699
50174;0.00;0.04;-1.00;0.00;61;-56;-8697
50196;0.00;0.04;-1.00;0.00;61;-56;-8694
50215;0.00;0.04;-1.00;0.00;57;-51;-8691
50235;0.00;0.04;-1.00;0.00;55;-50;-8691
50258;0.00;0.04;-1.00;0.00;52;-51;-8688
50278;0.00;0.04;-1.00;0.00;58;-54;-8687
50296;0.00;0.04;-1.00;0.00;58;-55;-8685
50317;0.00;0.04;-1.00;0.00;57;-56;-8693
50337;0.00;0.04;-1.00;0.00;58;-54;-8693
50356;0.00;0.04;-1.00;0.00;61;-55;-8697
50375;0.00;0.04;-1.00;0.00;63;-57;-8696
50395;0.00;0.04;-1.00;0.00;64;-57;-8694
50415;0.00;0.04;-1.00;0.00;63;-60;-8699
50433;0.00;0.04;-1.00;0.00;59;-60;-8699
50453;0.00;0.04;-1.00;0.00;63;-59;-8702
50473;0.00;0.04;-1.00;0.00;62;-60;-8700
50493;0.00;0.04;-1.00;0.00;59;-60;-8700
50516;0.00;0.04;-1.00;0.00;57;-57;-8699
50537;0.00;0.04;-1.00;0.00;55;-53;-8701
50561;0.00;0.04;-1.00;0.00;57;-56;-8702
50587;0.00;0.04;-1.00;0.00;61;-62;-8686
50605;0.00;0.04;-1.00;0.00;63;-61;-8690
50628;0.00;0.04;-1.00;0.00;64;-59;-8686
50648;0.00;0.04;-1.00;0.00;63;-60;-8686
50668;0.00;0.04;-1.00;0.00;61;-57;-8698
50687;0.00;0.04;-1.00;0.00;64;-55;-8691
50706;0.00;0.04;-1.00;0.00;67;-54;-8693
50726;0.00;0.04;-1.00;0.00;65;-54;-8692
50747;0.00;0.04;-1.00;0.00;63;-52;-8696
50768;0.00;0.04;-1.00;0.00;62;-51;-8691
50788;0.00;0.04;-1.00;0.00;62;-53;-8690
50808;0.00;0.04;-1.00;0.00;64;-54;-8697
50828;0.00;0.04;-1.00;0.00;67;-58;-8698
50847;0.00;0.04;-1.00;0.00;63;-54;-8695
50866;0.00;0.04;-1.00;0.00;60;-49;-8696
50886;0.00;0.04;-1.00;0.00;55;-47;-8699
50907;0.00;0.04;-1.00;0.00;52;-50;-8693
50925;0.00;0.04;-1.00;0.00;57;-54;-8693
50943;0.00;0.04;-1.00;0.00;59;-57;-8699
50964;0.00;0.04;-1.00;0.00;64;-62;-8695
50984;0.00;0.04;-1.00;0.00;65;-59;-8701
51003;0.00;0.04;-1.00;0.00;64;-54;-8701
51025;0.00;0.04;-1.00;0.00;62;-53;-8702
51046;0.00;0.04;-1.00;0.00;61;-54;-8696
51075;0.00;0.04;-1.00;0.00;55;-53;-8689
51095;0.00;0.04;-1.00;0.00;59;-55;-8688
51113;0.00;0.04;-1.00;0.00;53;-61;-8688
51134;0.00;0.04;-1.00;0.00;54;-61;-8688
51154;0.00;0.04;-1.00;0.00;56;-54;-8688
51173;0.00;0.04;-1.00;0.00;55;-54;-8692
51192;0.00;0.04;-1.00;0.00;58;-58;-8692
51212;0.00;0.04;-1.00;0.00;60;-58;-8690
51232;0.00;0.04;-1.00;0.00;62;-59;-8695
51251;0.00;0.04;-1.00;0.00;62;-56;-8695
51273;0.00;0.04;-1.00;0.00;59;-55;-8697
51293;0.00;0.04;-1.00;0.00;57;-52;-8695
51312;0.00;0.04;-1.00;0.00;57;-49;-8689
51329;0.00;0.04;-1.00;0.00;56;-45;-8682
51350;0.00;0.04;-1.00;0.00;53;-48;-8689
51370;0.00;0.04;-1.00;0.00;45;-49;-8684
51390;0.00;0.04;-1.00;0.00;48;-50;-8690
51407;0.00;0.04;-1.00;0.00;51;-48;-8692
51428;0.00;0.04;-1.00;0.00;52;-49;-8691
51448;0.00;0.04;-1.00;0.00;58;-48;-8692
51468;0.00;0.04;-1.00;0.00;63;-49;-8697
51486;0.00;0.04;-1.00;0.00;61;-49;-8696
51506;0.00;0.04;-1.00;0.00;63;-53;-8702
51529;0.00;0.04;-1.00;0.00;62;-55;-8694
51549;0.00;0.04;-1.00;0.00;61;-52;-8680
51576;0.00;0.04;-1.00;0.00;62;-58;-8689
51596;0.00;0.04;-1.00;0.00;60;-62;-8687
51615;0.00;0.04;-1.00;0.00;52;-61;-8687
51634;0.00;0.04;-1.00;0.00;55;-59;-8686
51654;0.00;0.04;-1.00;0.00;57;-59;-8685
51674;0.00;0.04;-1.00;0.00;62;-65;-8690
51693;0.00;0.04;-1.00;0.00;57;-65;-8690
51711;0.00;0.04;-1.00;0.00;56;-63;-8690
51731;0.00;0.04;-1.00;0.00;55;-61;-8698
51750;0.00;0.04;-1.00;0.00;58;-58;-8697
51773;0.00;0.04;-1.00;0.00;63;-55;-8704
51793;0.00;0.04;-1.00;0.00;57;-54;-8709
51813;0.00;0.04;-1.00;0.00;55;-56;-8714
51831;0.00;0.04;-1.00;0.00;56;-53;-8713
51851;0.00;0.04;-1.00;0.00;56;-54;-8704
51871;0.00;0.04;-1.00;0.00;58;-54;-8703
51891;0.00;0.04;-1.00;0.00;58;-53;-8702
51909;0.00;0.04;-1.00;0.00;62;-53;-8703
51928;0.00;0.04;-1.00;0.00;61;-51;-8702
51949;0.00;0.04;-1.00;0.00;54;-48;-8693
51968;0.00;0.04;-1.00;0.00;55;-49;-8694
51987;0.00;0.04;-1.00;0.00;58;-50;-8694
52006;0.00;0.04;-1.00;0.00;60;-50;-8691
52031;0.00;0.04;-1.00;0.00;60;-44;-8691
52049;0.00;0.04;-1.00;0.00;58;-45;-8689
52075;0.00;0.04;-1.00;0.00;62;-54;-8699
52096;0.00;0.04;-1.00;0.00;66;-55;-8702
52117;0.00;0.04;-1.00;0.00;71;-56;-8701
52135;0.00;0.04;-1.00;0.00;69;-62;-8700
52153;0.00;0.04;-1.00;0.00;70;-62;-8697
52174;0.00;0.04;-1.00;0.00;67;-56;-8692
52195;0.00;0.04;-1.00;0.00;64;-52;-8699
52213;0.00;0.04;-1.00;0.00;66;-52;-8700
52231;0.00;0.04;-1.00;0.00;59;-56;-8697
52252;0.00;0.04;-1.00;0.00;57;-54;-8697
52276;0.00;0.04;-1.00;0.00;55;-52;-8703
52293;0.00;0.04;-1.00;0.00;58;-51;-8703
52312;0.00;0.04;-1.00;0.00;57;-50;-8702
52334;0.00;0.04;-1.00;0.00;58;-49;-8702
52352;0.00;0.04;-1.00;0.00;59;-49;-8703
52371;0.00;0.04;-1.00;0.00;58;-55;-8701
52390;0.00;0.04;-1.00;0.00;62;-54;-8699
52412;0.00;0.04;-1.00;0.00;64;-56;-8701
52430;0.00;0.04;-1.00;0.00;64;-56;-8708
52449;0.00;0.04;-1.00;0.00;61;-55;-8708
52468;0.00;0.04;-1.00;0.00;60;-56;-8705
52489;0.00;0.04;-1.00;0.00;56;-56;-8702
52508;0.00;0.04;-1.00;0.00;56;-58;-8705
52531;0.00;0.04;-1.00;0.00;51;-58;-8702
52550;0.00;0.04;-1.00;0.00;49;-56;-8706
52576;0.00;0.04;-1.00;0.00;62;-64;-8685
52594;0.00;0.04;-1.00;0.00;59;-63;-8691
52615;0.00;0.04;-1.00;0.00;63;-57;-8688
52634;0.00;0.04;-1.00;0.00;62;-57;-8691
52653;0.00;0.04;-1.00;0.00;61;-56;-8692
52672;0.00;0.04;-1.00;0.00;67;-54;-8692
53695;0.00;0.04;-1.00;0.00;67;-57;-8700
53714;0.00;0.04;-1.00;0.00;65;-59;-8695
53734;0.00;0.04;-1.00;0.00;66;-56;-8702
53753;0.00;0.04;-1.00;0.00;62;-56;-8705
53777;0.00;0.04;-1.00;0.00;54;-54;-8703
53795;0.00;0.04;-1.00;0.00;63;-53;-8700
53815;0.00;0.04;-1.00;0.00;62;-55;-8695
53835;0.00;0.04;-1.00;0.00;62;-57;-8690
53855;0.00;0.04;-1.00;0.00;59;-54;-8692
53873;0.00;0.04;-1.00;0.00;58;-54;-8694
53893;0.00;0.04;-1.00;0.00;56;-57;-8693
53913;0.00;0.04;-1.00;0.00;54;-59;-8694
53933;0.00;0.04;-1.00;0.00;53;-61;-8696
53953;0.00;0.04;-1.00;0.00;54;-62;-8697
53978;0.00;0.04;-1.00;0.00;55;-56;-8692
53997;0.00;0.04;-1.00;0.00;55;-56;-8688
54016;0.00;0.04;-1.00;0.00;54;-57;-8690
54037;0.00;0.04;-1.00;0.00;47;-55;-8692
54058;0.00;0.04;-1.00;0.00;50;-54;-8692
54085;0.00;0.04;-1.00;0.00;63;-56;-8700
54103;0.00;0.04;-1.00;0.00;65;-60;-8694
54122;0.00;0.04;-1.00;0.00;58;-59;-8688
54142;0.00;0.04;-1.00;0.00;59;-63;-8690
54163;0.00;0.04;-1.00;0.00;58;-61;-8693
54181;0.00;0.04;-1.00;0.00;60;-57;-8688
54200;0.00;0.04;-1.00;0.00;55;-57;-8695
54220;0.00;0.04;-1.00;0.00;50;-54;-8693
54241;0.00;0.04;-1.00;0.00;52;-56;-8694
54259;0.00;0.04;-1.00;0.00;59;-56;-8696
54282;0.00;0.04;-1.00;0.00;60;-57;-8695
54302;0.00;0.04;-1.00;0.00;62;-53;-8698
54322;0.00;0.04;-1.00;0.00;62;-54;-8700
54340;0.00;0.04;-1.00;0.00;60;-55;-8704
54359;0.00;0.04;-1.00;0.00;58;-48;-8699
54380;0.00;0.04;-1.00;0.00;63;-39;-8696
54399;0.00;0.04;-1.00;0.00;61;-42;-8697
54418;0.00;0.04;-1.00;0.00;60;-46;-8704
54437;0.00;0.04;-1.00;0.00;59;-50;-8701
54458;0.00;0.04;-1.00;0.00;60;-49;-8702
54477;0.00;0.04;-1.00;0.00;64;-48;-8699
54496;0.00;0.04;-1.00;0.00;63;-48;-8706
54515;0.00;0.04;-1.00;0.00;67;-54;-8704
54539;0.00;0.04;-1.00;0.00;63;-56;-8702
54558;0.00;0.04;-1.00;0.00;62;-59;-8701
54585;0.00;0.04;-1.00;0.00;63;-60;-8693
54604;0.00;0.04;-1.00;0.00;67;-58;-8694
54625;0.00;0.04;-1.00;0.00;63;-57;-8699
54645;0.00;0.04;-1.00;0.00;62;-60;-8699
54667;0.00;0.04;-1.00;0.00;63;-63;-8690
54685;0.00;0.04;-1.00;0.00;64;-61;-8694
54706;0.00;0.04;-1.00;0.00;66;-60;-8696
54725;0.00;0.04;-1.00;0.00;65;-61;-8700
54743;0.00;0.04;-1.00;0.00;60;-61;-8694
54763;0.00;0.04;-1.00;0.00;56;-62;-8691
54786;0.00;0.04;-1.00;0.00;57;-60;-8696
54806;0.00;0.04;-1.00;0.00;59;-60;-8695
54826;0.00;0.04;-1.00;0.00;58;-57;-8695
54846;0.00;0.04;-1.00;0.00;59;-53;-8697
54865;0.00;0.04;-1.00;0.00;63;-51;-8695
54885;0.00;0.04;-1.00;0.00;64;-46;-8687
54904;0.00;0.04;-1.00;0.00;61;-48;-8686
54924;0.00;0.04;-1.00;0.00;62;-55;-8687
54943;0.00;0.04;-1.00;0.00;62;-55;-8688
54963;0.00;0.04;-1.00;0.00;62;-57;-8694
54983;0.00;0.04;-1.00;0.00;63;-57;-8690
55003;0.00;0.04;-1.00;0.00;61;-56;-8693
55022;0.00;0.04;-1.00;0.00;58;-54;-8698
55046;0.00;0.04;-1.00;0.00;61;-57;-8699
55074;0.00;0.04;-1.00;0.00;58;-59;-8694
55093;0.00;0.04;-1.00;0.00;63;-57;-8689
55112;0.00;0.04;-1.00;0.00;60;-59;-8689
55133;0.00;0.04;-1.00;0.00;56;-58;-8692
55152;0.00;0.04;-1.00;0.00;55;-56;-8699
55170;0.00;0.04;-1.00;0.00;60;-55;-8696
55191;0.00;0.04;-1.00;0.00;61;-56;-8693
55211;0.00;0.04;-1.00;0.00;60;-55;-8696
55231;0.00;0.04;-1.00;0.00;55;-55;-8696
55249;0.00;0.04;-1.00;0.00;53;-52;-8700
55269;0.00;0.04;-1.00;0.00;57;-56;-8691
55293;0.00;0.04;-1.00;0.00;62;-57;-8691
55312;0.00;0.04;-1.00;0.00;64;-59;-8688
55330;0.00;0.04;-1.00;0.00;67;-52;-8696
55352;0.00;0.04;-1.00;0.00;66;-54;-8695
55372;0.00;0.04;-1.00;0.00;64;-50;-8692
55390;0.00;0.04;-1.00;0.00;59;-53;-8690
55408;0.00;0.04;-1.00;0.00;53;-54;-8686
55430;0.00;0.04;-1.00;0.00;54;-55;-8689
55450;0.00;0.04;-1.00;0.00;53;-53;-8688
55468;0.00;0.04;-1.00;0.00;54;-58;-8691
55487;0.00;0.04;-1.00;0.00;56;-63;-8688
55507;0.00;0.04;-1.00;0.00;58;-59;-8690
55528;0.00;0.04;-1.00;0.00;60;-56;-8687
55549;0.00;0.04;-1.00;0.00;62;-56;-8681
55574;0.00;0.04;-1.00;0.00;62;-50;-8692
55594;0.00;0.04;-1.00;0.00;60;-48;-8693
55614;0.00;0.04;-1.00;0.00;61;-46;-8689
55632;0.00;0.04;-1.00;0.00;61;-47;-8691
55652;0.00;0.04;-1.00;0.00;63;-48;-8698
55673;0.00;0.04;-1.00;0.00;60;-50;-8703
55693;0.00;0.04;-1.00;0.00;51;-51;-8699
55710;0.00;0.04;-1.00;0.00;50;-48;-8693
55731;0.00;0.04;-1.00;0.00;52;-50;-8688
55751;0.00;0.04;-1.00;0.00;51;-52;-8685
55771;0.00;0.04;-1.00;0.00;53;-55;-8685
55793;0.00;0.04;-1.00;0.00;55;-55;-8684
55813;0.00;0.04;-1.00;0.00;54;-55;-8685
55832;0.00;0.04;-1.00;0.00;54;-57;-8682
55851;0.00;0.04;-1.00;0.00;53;-55;-8687
55871;0.00;0.04;-1.00;0.00;55;-55;-8693
55890;0.00;0.04;-1.00;0.00;57;-56;-8696
55910;0.00;0.04;-1.00;0.00;55;-52;-8698
55929;0.00;0.04;-1.00;0.00;53;-51;-8698
55950;0.00;0.04;-1.00;0.00;52;-50;-8700
55968;0.00;0.04;-1.00;0.00;52;-46;-8694
55989;0.00;0.04;-1.00;0.00;57;-49;-8690
56008;0.00;0.04;-1.00;0.00;55;-51;-8694
56028;0.00;0.04;-1.00;0.00;53;-56;-8691
56050;0.00;0.04;-1.00;0.00;52;-58;-8684
56075;0.00;0.04;-1.00;0.00;60;-63;-8689
56095;0.00;0.04;-1.00;0.00;62;-60;-8683
56115;0.00;0.04;-1.00;0.00;60;-60;-8681
56133;0.00;0.04;-1.00;0.00;59;-59;-8684
56152;0.00;0.04;-1.00;0.00;60;-55;-8690
56173;0.00;0.04;-1.00;0.00;60;-56;-8687
56192;0.00;0.04;-1.00;0.00;58;-56;-8690
56211;0.00;0.04;-1.00;0.00;62;-52;-8695
56230;0.00;0.04;-1.00;0.00;62;-53;-8695
56252;0.00;0.04;-1.00;0.00;61;-56;-8689
56271;0.00;0.04;-1.00;0.00;63;-57;-8692
56292;0.00;0.04;-1.00;0.00;63;-60;-8694
56313;0.00;0.04;-1.00;0.00;63;-58;-8699
56334;0.00;0.04;-1.00;0.00;65;-55;-8696
56353;0.00;0.04;-1.00;0.00;65;-56;-8699
56373;0.00;0.04;-1.00;0.00;60;-55;-8701
56399;0.00;0.04;-1.00;0.00;62;-54;-8701
56419;0.00;0.04;-1.00;0.00;66;-52;-8700
56437;0.00;0.04;-1.00;0.00;71;-53;-8696
56456;0.00;0.04;-1.00;0.00;67;-51;-8696
56476;0.00;0.04;-1.00;0.00;63;-55;-8693
56497;0.00;0.04;-1.00;0.00;59;-55;-8687
56515;0.00;0.04;-1.00;0.00;63;-51;-8692
56533;0.00;0.04;-1.00;0.00;63;-53;-8697
56563;0.00;0.04;-1.00;0.00;61;-53;-8693
56583;0.00;0.04;-1.00;0.00;59;-51;-8697
56601;0.00;0.04;-1.00;0.00;62;-50;-8701
56620;0.00;0.04;-1.00;0.00;58;-53;-8704
56641;0.00;0.04;-1.00;0.00;54;-55;-8703
56660;0.00;0.04;-1.00;0.00;58;-52;-8697
56679;0.00;0.04;-1.00;0.00;60;-52;-8701
56698;0.00;0.04;-1.00;0.00;60;-53;-8704
56719;0.00;0.04;-1.00;0.00;60;-52;-8703
56738;0.00;0.04;-1.00;0.00;63;-54;-8697
56757;0.00;0.04;-1.00;0.00;62;-53;-8696
56776;0.00;0.04;-1.00;0.00;61;-51;-8698
56800;0.00;0.04;-1.00;0.00;65;-55;-8698
57824;0.00;0.04;-1.00;0.00;62;-62;-8687
57843;0.00;0.04;-1.00;0.00;64;-63;-8690
57862;0.00;0.04;-1.00;0.00;61;-66;-8692
57882;0.00;0.04;-1.00;0.00;62;-64;-8698
57900;0.00;0.04;-1.00;0.00;60;-61;-8699
57921;0.00;0.04;-1.00;0.00;58;-58;-8701
57939;0.00;0.04;-1.00;0.00;60;-55;-8699
57961;0.00;0.04;-1.00;0.00;56;-52;-8703
57981;0.00;0.04;-1.00;0.00;60;-49;-8699
58005;0.00;0.04;-1.00;0.00;57;-44;-8700
58023;0.00;0.04;-1.00;0.00;56;-45;-8699
58043;0.00;0.04;-1.00;0.00;54;-46;-8703
58074;0.00;0.04;-1.00;0.00;62;-55;-8706
58092;0.00;0.04;-1.00;0.00;63;-57;-8697
58109;0.00;0.04;-1.00;0.00;61;-52;-8694
58131;0.00;0.04;-1.00;0.00;62;-54;-8700
58151;0.00;0.04;-1.00;0.00;64;-53;-8703
58170;0.00;0.04;-1.00;0.00;59;-51;-8702
58187;0.00;0.04;-1.00;0.00;57;-51;-8696
58209;0.00;0.04;-1.00;0.00;58;-50;-8701
58229;0.00;0.04;-1.00;0.00;56;-51;-8701
58248;0.00;0.04;-1.00;0.00;57;-50;-8701
58266;0.00;0.04;-1.00;0.00;56;-51;-8705
58287;0.00;0.04;-1.00;0.00;56;-52;-8707
58310;0.00;0.04;-1.00;0.00;57;-54;-8707
58328;0.00;0.04;-1.00;0.00;57;-54;-8705
58348;0.00;0.04;-1.00;0.00;59;-55;-8701
58368;0.00;0.04;-1.00;0.00;59;-55;-8700
58388;0.00;0.04;-1.00;0.00;58;-54;-8695
58406;0.00;0.04;-1.00;0.00;60;-53;-8690
58426;0.00;0.04;-1.00;0.00;67;-55;-8694
58446;0.00;0.04;-1.00;0.00;66;-56;-8689
58466;0.00;0.04;-1.00;0.00;62;-56;-8690
58484;0.00;0.04;-1.00;0.00;62;-58;-8691
58504;0.00;0.04;-1.00;0.00;61;-57;-8691
58524;0.00;0.04;-1.00;0.00;58;-55;-8692
58544;0.00;0.04;-1.00;0.00;61;-55;-8691
58573;0.00;0.04;-1.00;0.00;69;-52;-8698
58593;0.00;0.04;-1.00;0.00;68;-56;-8698
58612;0.00;0.04;-1.00;0.00;66;-56;-8694
58632;0.00;0.04;-1.00;0.00;63;-53;-8692
58651;0.00;0.04;-1.00;0.00;59;-54;-8694
58671;0.00;0.04;-1.00;0.00;60;-54;-8700
58690;0.00;0.04;-1.00;0.00;61;-52;-8703
58709;0.00;0.04;-1.00;0.00;60;-52;-8700
58729;0.00;0.04;-1.00;0.00;61;-51;-8698
58748;0.00;0.04;-1.00;0.00;63;-50;-8701
58768;0.00;0.04;-1.00;0.00;63;-51;-8702
58787;0.00;0.04;-1.00;0.00;60;-52;-8699
58811;0.00;0.04;-1.00;0.00;62;-51;-8701
58828;0.00;0.04;-1.00;0.00;64;-54;-8706
58849;0.00;0.04;-1.00;0.00;60;-59;-8703
58869;0.00;0.04;-1.00;0.00;58;-62;-8698
58889;0.00;0.04;-1.00;0.00;61;-57;-8698
58906;0.00;0.04;-1.00;0.00;65;-56;-8693
58927;0.00;0.04;-1.00;0.00;61;-57;-8695
58947;0.00;0.04;-1.00;0.00;60;-56;-8690
58966;0.00;0.04;-1.00;0.00;55;-55;-8691
58984;0.00;0.04;-1.00;0.00;55;-58;-8687
59004;0.00;0.04;-1.00;0.00;61;-61;-8689
59025;0.00;0.04;-1.00;0.00;65;-64;-8687
59044;0.00;0.04;-1.00;0.00;67;-62;-8688
59073;0.00;0.04;-1.00;0.00;58;-53;-8708
59093;0.00;0.04;-1.00;0.00;58;-52;-8704
59114;0.00;0.04;-1.00;0.00;60;-49;-8700
59132;0.00;0.04;-1.00;0.00;59;-48;-8699
59151;0.00;0.04;-1.00;0.00;55;-53;-8698
59171;0.00;0.04;-1.00;0.00;53;-53;-8698
59192;0.00;0.04;-1.00;0.00;57;-54;-8691
59210;0.00;0.04;-1.00;0.00;54;-53;-8696
59229;0.00;0.04;-1.00;0.00;56;-51;-8693
59249;0.00;0.04;-1.00;0.00;59;-53;-8693
59270;0.00;0.04;-1.00;0.00;63;-48;-8694
59288;0.00;0.04;-1.00;0.00;58;-51;-8696
59311;0.00;0.04;-1.00;0.00;60;-53;-8699
59331;0.00;0.04;-1.00;0.00;63;-54;-8699
59350;0.00;0.04;-1.00;0.00;65;-55;-8700
59368;0.00;0.04;-1.00;0.00;61;-59;-8698
59388;0.00;0.04;-1.00;0.00;59;-60;-8693
59409;0.00;0.04;-1.00;0.00;62;-61;-8689
59428;0.00;0.04;-1.00;0.00;65;-55;-8687
59446;0.00;0.04;-1.00;0.00;61;-55;-8699
59465;0.00;0.04;-1.00;0.00;61;-55;-8701
59487;0.00;0.04;-1.00;0.00;60;-55;-8702
59505;0.00;0.04;-1.00;0.00;62;-51;-8700
59523;0.00;0.04;-1.00;0.00;59;-49;-8707
59543;0.00;0.04;-1.00;0.00;59;-49;-8696
59573;0.00;0.04;-1.00;0.00;65;-55;-8710
59592;0.00;0.04;-1.00;0.00;64;-57;-8713
59612;0.00;0.04;-1.00;0.00;64;-60;-8716
59631;0.00;0.04;-1.00;0.00;67;-58;-8714
59650;0.00;0.04;-1.00;0.00;65;-60;-8706
59670;0.00;0.04;-1.00;0.00;63;-57;-8706
59689;0.00;0.04;-1.00;0.00;67;-56;-8706
59709;0.00;0.04;-1.00;0.00;66;-60;-8701
59728;0.00;0.04;-1.00;0.00;66;-59;-8701
59748;0.00;0.04;-1.00;0.00;64;-59;-8701
59769;0.00;0.04;-1.00;0.00;67;-57;-8697
59790;0.00;0.04;-1.00;0.00;70;-55;-8700
59816;0.00;0.04;-1.00;0.00;69;-52;-8698
59836;0.00;0.04;-1.00;0.00;66;-51;-8698
59855;0.00;0.04;-1.00;0.00;62;-50;-8702
59874;0.00;0.04;-1.00;0.00;60;-47;-8701
59893;0.00;0.04;-1.00;0.00;61;-49;-8700
59914;0.00;0.04;-1.00;0.00;59;-50;-8689
59933;0.00;0.04;-1.00;0.00;61;-48;-8693
59952;0.00;0.04;-1.00;0.00;62;-47;-8691
59971;0.00;0.04;-1.00;0.00;60;-49;-8694
59992;0.00;0.04;-1.00;0.00;59;-50;-8691
60012;0.00;0.04;-1.00;0.00;63;-51;-8699
60030;0.00;0.04;-1.00;0.00;62;-51;-8697
60050;0.00;0.04;-1.00;0.00;60;-53;-8694
60083;0.00;0.04;-1.00;0.00;51;-62;-8707
60101;0.00;0.04;-1.00;0.00;52;-62;-8705
60118;0.00;0.04;-1.00;0.00;57;-56;-8703
60140;0.00;0.04;-1.00;0.00;57;-58;-8698
60160;0.00;0.04;-1.00;0.00;57;-56;-8702
60179;0.00;0.04;-1.00;0.00;57;-57;-8700
60197;0.00;0.04;-1.00;0.00;58;-62;-8702
60218;0.00;0.04;-1.00;0.00;60;-61;-8702
60238;0.00;0.04;-1.00;0.00;58;-62;-8707
60259;0.00;0.04;-1.00;0.00;54;-61;-8708
60277;0.00;0.04;-1.00;0.00;54;-58;-8711
60301;0.00;0.04;-1.00;0.00;52;-58;-8706
60322;0.00;0.04;-1.00;0.00;55;-62;-8709
60343;0.00;0.04;-1.00;0.00;60;-61;-8706
60361;0.00;0.04;-1.00;0.00;58;-59;-8708
60382;0.00;0.04;-1.00;0.00;56;-59;-8713
60401;0.00;0.04;-1.00;0.00;57;-56;-8709
60421;0.00;0.04;-1.00;0.00;60;-57;-8708
60440;0.00;0.04;-1.00;0.00;59;-59;-8706
60459;0.00;0.04;-1.00;0.00;57;-57;-8698
60479;0.00;0.04;-1.00;0.00;59;-58;-8697
60498;0.00;0.04;-1.00;0.00;61;-56;-8699
60518;0.00;0.04;-1.00;0.00;64;-56;-8698
60537;0.00;0.04;-1.00;0.00;61;-56;-8699
60557;0.00;0.04;-1.00;0.00;58;-52;-8699
60582;0.00;0.04;-1.00;0.00;60;-54;-8701
60601;0.00;0.04;-1.00;0.00;66;-53;-8701
60620;0.00;0.04;-1.00;0.00;63;-53;-8701
60641;0.00;0.04;-1.00;0.00;59;-54;-8705
60660;0.00;0.04;-1.00;0.00;60;-52;-8697
60679;0.00;0.04;-1.00;0.00;61;-53;-8692
60698;0.00;0.04;-1.00;0.00;63;-56;-8692
60719;0.00;0.04;-1.00;0.00;64;-54;-8696
60738;0.00;0.04;-1.00;0.00;68;-50;-8696
60756;0.00;0.04;-1.00;0.00;67;-47;-8697
60776;0.00;0.04;-1.00;0.00;62;-50;-8694
60797;0.00;0.04;-1.00;0.00;62;-53;-8695
60819;0.00;0.04;-1.00;0.00;63;-54;-8701
60837;0.00;0.04;-1.00;0.00;59;-52;-8698
60859;0.00;0.04;-1.00;0.00;62;-54;-8698
60879;0.00;0.04;-1.00;0.00;62;-52;-8698
60898;0.00;0.04;-1.00;0.00;62;-52;-8703
60915;0.00;0.04;-1.00;0.00;59;-53;-8705
61941;0.00;0.04;-1.00;0.00;65;-61;-8691
61962;0.00;0.04;-1.00;0.00;64;-59;-8687
61980;0.00;0.04;-1.00;0.00;59;-58;-8685
61999;0.00;0.04;-1.00;0.00;63;-55;-8685
62019;0.00;0.04;-1.00;0.00;67;-55;-8685
62039;0.00;0.04;-1.00;0.00;63;-54;-8691
62058;0.00;0.04;-1.00;0.00;62;-54;-8695
62092;0.00;0.04;-1.00;0.00;59;-54;-8698
62112;0.00;0.04;-1.00;0.00;57;-57;-8690
62132;0.00;0.04;-1.00;0.00;58;-57;-8692
62150;0.00;0.04;-1.00;0.00;61;-57;-8696
62170;0.00;0.04;-1.00;0.00;65;-55;-8694
62190;0.00;0.04;-1.00;0.00;64;-54;-8694
62209;0.00;0.04;-1.00;0.00;63;-54;-8694
62228;0.00;0.04;-1.00;0.00;63;-53;-8696
62247;0.00;0.04;-1.00;0.00;63;-50;-8696
62268;0.00;0.04;-1.00;0.00;65;-49;-8694
62287;0.00;0.04;-1.00;0.00;65;-52;-8692
62306;0.00;0.04;-1.00;0.00;62;-54;-8697
62329;0.00;0.04;-1.00;0.00;60;-50;-8701
62349;0.00;0.04;-1.00;0.00;57;-54;-8702
62368;0.00;0.04;-1.00;0.00;58;-62;-8697
62388;0.00;0.04;-1.00;0.00;59;-56;-8698
62407;0.00;0.04;-1.00;0.00;59;-54;-8695
62427;0.00;0.04;-1.00;0.00;65;-56;-8701
62446;0.00;0.04;-1.00;0.00;65;-58;-8700
62465;0.00;0.04;-1.00;0.00;63;-59;-8702
62485;0.00;0.04;-1.00;0.00;63;-56;-8704
62504;0.00;0.04;-1.00;0.00;67;-54;-8699
62524;0.00;0.04;-1.00;0.00;69;-53;-8697
62543;0.00;0.04;-1.00;0.00;69;-53;-8689
62563;0.00;0.04;-1.00;0.00;72;-51;-8696
62580;0.07;-1.41;1.66;-1.14;53;-1;0
62602;0.00;0.04;-1.00;0.00;61;-53;-8695
62621;0.00;0.04;-1.00;0.00;66;-58;-8693
62641;0.00;0.04;-1.00;0.00;65;-51;-8692
62660;0.00;0.04;-1.00;0.00;94;-31;-8689
62678;0.00;0.04;-1.00;0.00;246;86;-8699
62699;0.00;0.04;-1.00;0.00;391;206;-8690
62717;0.00;0.04;-1.00;0.00;423;241;-8694
62738;0.00;0.04;-1.00;0.00;293;114;-8690
62756;0.00;0.04;-1.00;0.00;26;-126;-8695
62777;0.00;0.04;-1.00;0.00;-211;-266;-8702
62795;0.00;0.04;-1.00;0.00;-166;-231;-8691
62818;0.00;0.04;-1.00;0.00;-104;-167;-8698
62839;0.00;0.04;-1.00;0.00;-65;-150;-8686
62859;0.00;0.04;-1.00;0.00;-34;-111;-8701
62876;0.00;0.04;-1.00;0.00;-11;-110;-8700
62896;0.00;0.04;-1.00;0.00;9;-93;-8703
62917;0.00;0.04;-1.00;0.00;44;-81;-8709
62935;0.00;0.04;-1.00;0.00;153;-49;-8711
62954;0.00;0.04;-1.00;0.00;238;12;-8709
62973;0.00;0.04;-1.00;0.00;228;56;-8701
62994;0.00;0.04;-1.00;0.00;127;29;-8700
63013;0.00;0.04;-1.00;0.00;47;-16;-8700
63032;0.00;0.04;-1.00;0.00;12;-74;-8698
