t;w;x;y;z;ax;ay;az
1239;0.26;0.29;-0.69;-0.61;20;8102;-1003
1258;0.26;0.29;-0.69;-0.61;29;8091;-975
1282;0.26;0.29;-0.69;-0.61;18;8099;-995
1309;0.26;0.29;-0.69;-0.61;9;8111;-1012
1326;0.26;0.29;-0.69;-0.61;9;8105;-1008
1343;0.26;0.29;-0.69;-0.61;10;8102;-1012
1361;0.26;0.29;-0.69;-0.61;5;8104;-1012
1380;0.26;0.29;-0.69;-0.61;0;8104;-1014
1396;0.26;0.29;-0.69;-0.61;2;8100;-1017
1414;0.26;0.29;-0.69;-0.61;1;8098;-1013
1432;0.26;0.29;-0.69;-0.61;2;8097;-1015
1449;0.26;0.29;-0.69;-0.61;2;8100;-1017
1470;0.26;0.29;-0.69;-0.61;3;8098;-1016
1487;0.26;0.29;-0.69;-0.61;3;8099;-1007
1506;0.26;0.29;-0.69;-0.61;4;8099;-1000
1523;0.26;0.29;-0.69;-0.61;2;8102;-1004
1540;0.26;0.29;-0.69;-0.61;8;8101;-1000
1558;0.26;0.29;-0.69;-0.61;12;8100;-1006
1575;0.26;0.29;-0.69;-0.61;9;8100;-1011
1594;0.26;0.29;-0.69;-0.61;7;8103;-1014
1611;0.26;0.29;-0.69;-0.61;12;8107;-1014
1628;0.26;0.29;-0.69;-0.61;17;8105;-1017
1646;0.26;0.29;-0.69;-0.61;19;8107;-1019
1664;0.26;0.29;-0.69;-0.61;18;8105;-1022
1681;0.26;0.29;-0.69;-0.61;18;8101;-1026
1701;0.26;0.29;-0.69;-0.61;18;8102;-1022
1724;0.26;0.29;-0.69;-0.61;13;8100;-1021
1741;0.26;0.29;-0.69;-0.61;13;8099;-1022
1759;0.26;0.29;-0.69;-0.61;7;8101;-1020
1776;0.26;0.29;-0.69;-0.61;9;8102;-1025
1794;0.26;0.29;-0.69;-0.61;10;8101;-1025
1812;0.26;0.29;-0.69;-0.61;8;8100;-1025
1829;0.26;0.29;-0.69;-0.61;8;8106;-1012
1846;0.26;0.29;-0.69;-0.61;8;8103;-1014
1869;0.26;0.29;-0.69;-0.61;11;8103;-1008
1888;0.26;0.29;-0.69;-0.61;13;8103;-1006
1904;0.26;0.29;-0.69;-0.61;12;8099;-1008
1924;0.26;0.29;-0.69;-0.61;13;8099;-1006
1943;0.26;0.29;-0.69;-0.61;17;8099;-1003
1961;0.26;0.29;-0.69;-0.61;16;8101;-1006
1979;0.26;0.29;-0.69;-0.61;17;8103;-1012
1995;0.26;0.29;-0.69;-0.61;14;8103;-1008
2014;0.26;0.29;-0.69;-0.61;12;8102;-1009
2032;0.26;0.29;-0.69;-0.61;14;8098;-1003
2048;0.26;0.29;-0.69;-0.61;13;8098;-1010
2066;0.26;0.29;-0.69;-0.61;15;8097;-1009
2084;0.26;0.29;-0.69;-0.61;18;8100;-1006
2102;0.26;0.29;-0.69;-0.61;20;8100;-1010
2119;0.26;0.29;-0.69;-0.61;16;8100;-1010
2140;0.26;0.29;-0.69;-0.61;15;8102;-1009
2158;0.26;0.29;-0.69;-0.61;11;8099;-1015
2178;0.26;0.29;-0.69;-0.61;10;8098;-1013
2196;0.26;0.29;-0.69;-0.61;12;8104;-1013
2212;0.26;0.29;-0.69;-0.61;8;8105;-1015
2231;0.26;0.29;-0.69;-0.61;10;8108;-1014
2249;0.26;0.29;-0.69;-0.61;10;8106;-1020
2267;0.26;0.29;-0.69;-0.61;13;8104;-1019
2283;0.26;0.29;-0.69;-0.61;16;8101;-1020
2301;0.26;0.29;-0.69;-0.61;11;8101;-1022
2320;0.26;0.29;-0.69;-0.61;14;8100;-1018
2337;0.26;0.29;-0.69;-0.61;9;8099;-1014
2354;0.26;0.29;-0.69;-0.61;8;8102;-1014
2376;0.26;0.29;-0.69;-0.61;6;8102;-1016
2395;0.26;0.29;-0.69;-0.61;8;8100;-1018
2419;0.26;0.29;-0.69;-0.61;11;8097;-1016
2436;0.26;0.29;-0.69;-0.61;11;8095;-1020
2455;0.26;0.29;-0.69;-0.61;13;8096;-1022
2472;0.26;0.29;-0.69;-0.61;13;8099;-1020
2490;0.26;0.29;-0.69;-0.61;14;8099;-1022
2507;0.26;0.29;-0.69;-0.61;13;8102;-1021
2526;0.26;0.29;-0.69;-0.61;16;8100;-1017
2544;0.26;0.29;-0.69;-0.61;14;8103;-1012
2560;0.26;0.29;-0.69;-0.61;14;8103;-1015
2578;0.26;0.29;-0.69;-0.61;11;8099;-1010
2599;0.26;0.29;-0.69;-0.61;13;8100;-1013
2618;0.26;0.29;-0.69;-0.61;16;8101;-1013
2635;0.26;0.29;-0.69;-0.61;7;8094;-1021
2652;0.26;0.29;-0.69;-0.61;11;8091;-1027
2670;0.26;0.29;-0.69;-0.61;8;8094;-1026
2688;0.26;0.29;-0.69;-0.61;9;8095;-1024
2706;0.26;0.29;-0.69;-0.61;7;8097;-1032
2722;0.26;0.29;-0.69;-0.61;6;8098;-1028
2741;0.26;0.29;-0.69;-0.61;5;8097;-1028
2759;0.26;0.29;-0.69;-0.61;8;8100;-1024
2776;0.26;0.29;-0.69;-0.61;6;8101;-1020
2797;0.26;0.29;-0.69;-0.61;7;8101;-1020
2818;0.26;0.29;-0.69;-0.61;9;8100;-1014
2837;0.26;0.29;-0.69;-0.61;7;8101;-1016
2853;0.26;0.29;-0.69;-0.61;5;8101;-1019
2871;0.26;0.29;-0.69;-0.61;8;8101;-1015
2889;0.26;0.29;-0.69;-0.61;9;8100;-1013
2908;0.26;0.29;-0.69;-0.61;7;8095;-1013
2924;0.26;0.29;-0.69;-0.61;4;8094;-1016
2941;0.26;0.29;-0.69;-0.61;2;8096;-1018
2969;0.26;0.29;-0.69;-0.61;12;8100;-1014
2987;0.26;0.29;-0.69;-0.61;7;8101;-1016
3004;0.26;0.29;-0.69;-0.61;7;8103;-1013
3021;0.26;0.29;-0.69;-0.61;9;8101;-1014
3040;0.26;0.29;-0.69;-0.61;12;8103;-1023
3061;0.26;0.29;-0.69;-0.61;12;8103;-1017
3079;0.26;0.29;-0.69;-0.61;10;8103;-1013
3095;0.26;0.29;-0.69;-0.61;5;8104;-1007
3113;0.26;0.29;-0.69;-0.61;2;8106;-1013
3132;0.26;0.29;-0.69;-0.61;8;8107;-1009
3149;0.26;0.29;-0.69;-0.61;10;8104;-1011
3166;0.26;0.29;-0.69;-0.61;9;8103;-1010
3184;0.26;0.29;-0.69;-0.61;11;8105;-1013
3202;0.26;0.29;-0.69;-0.61;10;8106;-1012
3220;0.26;0.29;-0.69;-0.61;9;8105;-1011
3239;0.26;0.29;-0.69;-0.61;7;8099;-1007
3258;0.26;0.29;-0.69;-0.61;9;8097;-1004
3279;0.26;0.29;-0.69;-0.61;9;8096;-1008
3296;0.26;0.29;-0.69;-0.61;7;8097;-1015
3313;0.26;0.29;-0.69;-0.61;9;8099;-1015
3331;0.26;0.29;-0.69;-0.61;9;8100;-1017
3350;0.26;0.29;-0.69;-0.61;7;8100;-1015
3366;0.26;0.29;-0.69;-0.61;9;8101;-1015
3384;0.26;0.29;-0.69;-0.61;11;8105;-1014
3402;0.26;0.29;-0.69;-0.61;10;8102;-1018
3421;0.26;0.29;-0.69;-0.61;12;8103;-1019
3439;0.26;0.29;-0.69;-0.61;12;8102;-1017
3456;0.26;0.29;-0.69;-0.61;8;8106;-1016
3479;0.26;0.29;-0.69;-0.61;14;8108;-1023
3509;0.26;0.29;-0.69;-0.61;2;8106;-1025
3526;0.26;0.29;-0.69;-0.61;3;8109;-1025
3543;0.26;0.29;-0.69;-0.61;3;8108;-1019
3562;0.26;0.29;-0.69;-0.61;1;8106;-1018
3579;0.26;0.29;-0.69;-0.61;-1;8108;-1011
3597;0.26;0.29;-0.69;-0.61;4;8106;-1011
3614;0.26;0.29;-0.69;-0.61;5;8105;-1010
3633;0.26;0.29;-0.69;-0.61;9;8106;-1013
3651;0.26;0.29;-0.69;-0.61;12;8109;-1009
3667;0.26;0.29;-0.69;-0.61;10;8109;-1014
3685;0.26;0.29;-0.69;-0.61;10;8111;-1015
3703;0.26;0.29;-0.69;-0.61;8;8108;-1016
3722;0.26;0.29;-0.69;-0.61;11;8104;-1015
3742;0.26;0.29;-0.69;-0.61;6;8097;-1012
3757;0.26;0.29;-0.69;-0.61;5;8096;-1016
3776;0.26;0.29;-0.69;-0.61;5;8101;-1007
3793;0.26;0.29;-0.69;-0.61;4;8102;-1008
3811;0.26;0.29;-0.69;-0.61;6;8104;-1001
3828;0.26;0.29;-0.69;-0.61;11;8104;-1005
3847;0.26;0.29;-0.69;-0.61;11;8107;-1011
3864;0.26;0.29;-0.69;-0.61;12;8103;-1012
3881;0.26;0.29;-0.69;-0.61;13;8102;-1009
3899;0.26;0.29;-0.69;-0.61;12;8098;-1009
3917;0.26;0.29;-0.69;-0.61;12;8098;-1012
3935;0.26;0.29;-0.69;-0.61;16;8097;-1006
3956;0.26;0.29;-0.69;-0.61;20;8099;-1004
3972;0.26;0.29;-0.69;-0.61;15;8101;-1003
3990;0.26;0.29;-0.69;-0.61;14;8106;-1012
4009;0.26;0.29;-0.69;-0.61;12;8108;-1018
4027;0.26;0.29;-0.69;-0.61;15;8107;-1012
4043;0.26;0.29;-0.69;-0.61;15;8102;-1017
4069;0.26;0.29;-0.69;-0.61;11;8110;-1013
5089;0.26;0.29;-0.69;-0.61;8;8105;-1009
5106;0.26;0.29;-0.69;-0.61;12;8106;-1013
5122;0.26;0.29;-0.69;-0.61;8;8108;-1010
5140;0.26;0.29;-0.69;-0.61;5;8111;-1017
5158;0.26;0.29;-0.69;-0.61;4;8107;-1018
5179;0.26;0.29;-0.69;-0.61;4;8103;-1015
5195;0.26;0.29;-0.69;-0.61;6;8101;-1008
5215;0.26;0.29;-0.69;-0.61;0;8100;-1009
5233;0.26;0.29;-0.69;-0.61;-1;8104;-1013
5249;0.26;0.29;-0.69;-0.61;-1;8104;-1015
5266;0.26;0.29;-0.69;-0.61;-4;8103;-1021
5285;0.26;0.29;-0.69;-0.61;1;8101;-1022
5304;0.26;0.29;-0.69;-0.61;10;8100;-1026
5320;0.26;0.29;-0.69;-0.61;13;8102;-1030
5336;0.26;0.29;-0.69;-0.61;13;8099;-1029
5355;0.26;0.29;-0.69;-0.61;9;8101;-1021
5374;0.26;0.29;-0.69;-0.61;10;8104;-1024
5391;0.26;0.29;-0.69;-0.61;7;8104;-1020
5411;0.26;0.29;-0.69;-0.61;10;8104;-1019
5430;0.26;0.29;-0.69;-0.61;12;8103;-1018
5447;0.26;0.29;-0.69;-0.61;12;8106;-1020
5463;0.26;0.29;-0.69;-0.61;9;8108;-1015
5481;0.26;0.29;-0.69;-0.61;9;8105;-1020
5500;0.26;0.29;-0.69;-0.61;10;8104;-1019
5518;0.26;0.29;-0.69;-0.61;8;8108;-1021
5534;0.26;0.29;-0.69;-0.61;6;8109;-1017
5551;0.26;0.29;-0.69;-0.61;7;8107;-1019
5571;0.26;0.29;-0.69;-0.61;10;8108;-1026
5588;0.26;0.29;-0.69;-0.61;10;8106;-1019
5605;0.26;0.29;-0.69;-0.61;10;8108;-1012
5626;0.26;0.29;-0.69;-0.61;-7078;10920;4277
5648;0.26;0.29;-0.69;-0.61;11;8098;-1021
5665;0.26;0.29;-0.69;-0.61;12;8099;-1022
5684;0.26;0.29;-0.69;-0.61;14;8097;-1020
5701;0.26;0.29;-0.69;-0.61;16;8096;-1013
5718;0.26;0.29;-0.69;-0.61;12;8096;-1008
5736;0.26;0.29;-0.69;-0.61;10;8098;-1008
5754;0.26;0.29;-0.69;-0.61;7;8103;-1017
5772;0.26;0.29;-0.69;-0.61;5;8101;-1014
5789;0.26;0.29;-0.69;-0.61;6;8105;-1018
5806;0.26;0.29;-0.69;-0.61;4;8108;-1013
5824;0.26;0.29;-0.69;-0.61;5;8105;-1012
5844;0.26;0.29;-0.69;-0.61;10;8104;-1015
5862;0.26;0.29;-0.69;-0.61;13;8102;-1018
5881;0.26;0.29;-0.69;-0.61;13;8102;-1017
5899;0.26;0.29;-0.69;-0.61;12;8107;-1024
5915;0.26;0.29;-0.69;-0.61;13;8106;-1029
5932;0.26;0.29;-0.69;-0.61;10;8108;-1026
5952;0.26;0.29;-0.69;-0.61;11;8112;-1021
5969;0.26;0.29;-0.69;-0.61;6;8109;-1014
5986;0.26;0.29;-0.69;-0.61;6;8106;-1012
6003;0.26;0.29;-0.69;-0.61;10;8102;-1015
6023;0.26;0.29;-0.69;-0.61;9;8101;-1018
6040;0.26;0.29;-0.69;-0.61;4;8106;-1020
6056;0.26;0.29;-0.69;-0.61;-1;8108;-1016
6078;0.26;0.29;-0.69;-0.61;-5;8106;-1011
6096;0.26;0.29;-0.69;-0.61;-5;8104;-1008
6113;0.26;0.29;-0.69;-0.61;-4;8100;-1017
6129;0.26;0.29;-0.69;-0.61;3;8101;-1015
6148;0.26;0.29;-0.69;-0.61;6;8105;-1018
6167;0.26;0.29;-0.69;-0.61;7;8105;-1022
6183;0.26;0.29;-0.69;-0.61;7;8105;-1019
6208;0.26;0.29;-0.69;-0.61;13;8100;-1023
6226;0.26;0.29;-0.69;-0.61;14;8100;-1021
6246;0.26;0.29;-0.69;-0.61;13;8103;-1020
6262;0.26;0.29;-0.69;-0.61;9;8101;-1020
6278;0.26;0.29;-0.69;-0.61;6;8103;-1021
6301;0.26;0.29;-0.69;-0.61;6;8107;-1030
6318;0.26;0.29;-0.69;-0.61;11;8106;-1027
6335;0.26;0.29;-0.69;-0.61;13;8108;-1020
6352;0.26;0.29;-0.69;-0.61;13;8109;-1017
6372;0.26;0.29;-0.69;-0.61;14;8110;-1018
6389;0.26;0.29;-0.69;-0.61;15;8108;-1013
6406;0.26;0.29;-0.69;-0.61;11;8107;-1018
6423;0.26;0.29;-0.69;-0.61;9;8104;-1017
6442;0.26;0.29;-0.69;-0.61;5;8105;-1016
6460;0.26;0.29;-0.69;-0.61;8;8106;-1016
6476;0.26;0.29;-0.69;-0.61;6;8107;-1013
6494;0.26;0.29;-0.69;-0.61;8;8104;-1013
6515;0.26;0.29;-0.69;-0.61;10;8104;-1014
6532;0.26;0.29;-0.69;-0.61;12;8102;-1008
6550;0.26;0.29;-0.69;-0.61;12;8100;-1011
6567;0.26;0.29;-0.69;-0.61;10;8097;-1000
6586;0.26;0.29;-0.69;-0.61;11;8099;-999
6603;0.26;0.29;-0.69;-0.61;13;8101;-1007
6622;0.26;0.29;-0.69;-0.61;8;8100;-1010
6640;0.26;0.29;-0.69;-0.61;5;8101;-1008
6663;0.26;0.29;-0.69;-0.61;10;8099;-1011
6679;0.26;0.29;-0.69;-0.61;8;8101;-1011
6696;0.26;0.29;-0.69;-0.61;10;8100;-1010
6714;0.26;0.29;-0.69;-0.61;12;8101;-1016
6734;0.26;0.29;-0.69;-0.61;13;8101;-1014
6758;0.26;0.29;-0.69;-0.61;10;8102;-1019
6775;0.26;0.29;-0.69;-0.61;9;8101;-1015
6792;0.26;0.29;-0.69;-0.61;10;8100;-1023
6809;0.26;0.29;-0.69;-0.61;9;8097;-1024
6828;0.26;0.29;-0.69;-0.61;9;8099;-1017
6846;0.26;0.29;-0.69;-0.61;7;8100;-1016
6863;0.26;0.29;-0.69;-0.61;4;8097;-1016
6883;0.26;0.29;-0.69;-0.61;4;8096;-1010
6902;0.26;0.29;-0.69;-0.61;1;8099;-1016
6919;0.26;0.29;-0.69;-0.61;7;8100;-1019
6936;0.26;0.29;-0.69;-0.61;13;8102;-1018
6953;0.26;0.29;-0.69;-0.61;12;8103;-1021
6976;0.26;0.29;-0.69;-0.61;13;8104;-1018
6993;0.26;0.29;-0.69;-0.61;13;8102;-1012
7010;0.26;0.29;-0.69;-0.61;12;8098;-1012
7027;0.26;0.29;-0.69;-0.61;12;8098;-1015
7047;0.26;0.29;-0.69;-0.61;9;8097;-1008
7064;0.26;0.29;-0.69;-0.61;10;8096;-1006
7080;0.26;0.29;-0.69;-0.61;12;8094;-1010
7099;0.26;0.29;-0.69;-0.61;15;8099;-1014
7117;0.26;0.29;-0.69;-0.61;12;8099;-1021
7135;0.26;0.29;-0.69;-0.61;9;8094;-1019
7151;0.26;0.29;-0.69;-0.61;11;8093;-1025
7169;0.26;0.29;-0.69;-0.61;6;8098;-1017
7192;0.26;0.29;-0.69;-0.61;5;8098;-1018
7208;0.26;0.29;-0.69;-0.61;3;8101;-1010
7225;0.26;0.29;-0.69;-0.61;5;8102;-1007
7244;0.26;0.29;-0.69;-0.61;10;8102;-1008
7263;0.26;0.29;-0.69;-0.61;9;8099;-1014
7279;0.26;0.29;-0.69;-0.61;7;8100;-1013
7295;0.26;0.29;-0.69;-0.61;-19862;11328;-7827
7317;0.26;0.29;-0.69;-0.61;15;8095;-1020
7335;0.26;0.29;-0.69;-0.61;14;8091;-1014
7352;0.26;0.29;-0.69;-0.61;11;8093;-1010
7368;0.26;0.29;-0.69;-0.61;8;8098;-1009
7388;0.26;0.29;-0.69;-0.61;9;8096;-1018
7409;0.26;0.29;-0.69;-0.61;13;8101;-1017
7425;0.26;0.29;-0.69;-0.61;15;8103;-1018
7444;0.26;0.29;-0.69;-0.61;14;8105;-1018
7462;0.26;0.29;-0.69;-0.61;13;8109;-1015
7480;0.26;0.29;-0.69;-0.61;14;8110;-1011
7496;0.26;0.29;-0.69;-0.61;15;8101;-1012
7515;0.26;0.29;-0.69;-0.61;16;8098;-1014
7533;0.26;0.29;-0.69;-0.61;12;8099;-1017
7550;0.26;0.29;-0.69;-0.61;12;8101;-1021
7567;0.26;0.29;-0.69;-0.61;7;8103;-1021
7585;0.26;0.29;-0.69;-0.61;4;8103;-1024
7604;0.26;0.29;-0.69;-0.61;1;8102;-1028
7621;0.26;0.29;-0.69;-0.61;6;8104;-1031
7643;0.26;0.29;-0.69;-0.61;2;8102;-1030
7660;0.26;0.29;-0.69;-0.61;4;8105;-1021
7677;0.26;0.29;-0.69;-0.61;5;8105;-1021
7695;0.26;0.29;-0.69;-0.61;7;8105;-1020
7713;0.26;0.29;-0.69;-0.61;13;8104;-1020
7731;0.26;0.29;-0.69;-0.61;15;8106;-1018
7748;0.26;0.29;-0.69;-0.61;17;8108;-1016
7765;0.26;0.29;-0.69;-0.61;13;8109;-1014
7784;0.26;0.29;-0.69;-0.61;18;8108;-1014
7801;0.26;0.29;-0.69;-0.61;15;8107;-1023
7819;0.26;0.29;-0.69;-0.61;9;8102;-1014
7836;0.26;0.29;-0.69;-0.61;12;8101;-1010
7867;0.26;0.29;-0.69;-0.61;15;8095;-1017
7883;0.26;0.29;-0.69;-0.61;17;8097;-1011
8907;0.26;0.30;-0.69;-0.61;11;8104;-1020
8926;0.26;0.30;-0.69;-0.61;13;8102;-1020
8943;0.26;0.30;-0.69;-0.61;15;8099;-1019
8959;0.26;0.30;-0.69;-0.61;16;8102;-1016
8978;0.26;0.30;-0.69;-0.61;17;8104;-1017
8996;0.26;0.30;-0.69;-0.61;16;8099;-1009
9014;0.26;0.30;-0.69;-0.61;14;8095;-1005
9030;0.26;0.30;-0.69;-0.61;7;8095;-1005
9048;0.26;0.30;-0.69;-0.61;3;8099;-1010
9067;0.26;0.30;-0.69;-0.61;4;8103;-1010
9087;0.26;0.30;-0.69;-0.61;4;8105;-1009
9104;0.26;0.30;-0.69;-0.61;4;8104;-1010
9123;0.26;0.30;-0.69;-0.61;10;8104;-1014
9142;0.26;0.30;-0.69;-0.61;13;8105;-1013
9158;0.26;0.30;-0.69;-0.61;14;8103;-1018
9174;0.26;0.30;-0.69;-0.61;14;8111;-1020
9194;0.26;0.30;-0.69;-0.61;12;8108;-1017
9213;0.26;0.30;-0.69;-0.61;11;8102;-1012
9230;0.26;0.30;-0.69;-0.61;12;8102;-1016
9246;0.26;0.30;-0.69;-0.61;10;8099;-1017
9265;0.26;0.30;-0.69;-0.61;8;8101;-1015
9284;0.26;0.30;-0.69;-0.61;8;8102;-1011
9300;0.26;0.30;-0.69;-0.61;9;8104;-1016
9315;0.26;0.30;-0.69;-0.61;10;8105;-1017
9333;0.26;0.30;-0.69;-0.61;10;8106;-1019
9352;0.26;0.30;-0.69;-0.61;12;8107;-1019
9368;0.26;0.30;-0.69;-0.61;9;8109;-1019
9384;0.26;0.30;-0.69;-0.61;6;8110;-1019
9404;0.26;0.30;-0.69;-0.61;4;8107;-1015
9422;0.26;0.30;-0.69;-0.61;10;8103;-1019
9446;0.26;0.29;-0.69;-0.61;17;8104;-1013
9462;0.26;0.29;-0.69;-0.61;12;8104;-1006
9482;0.26;0.29;-0.69;-0.61;8;8101;-997
9500;0.26;0.29;-0.69;-0.61;5;8101;-995
9516;0.26;0.29;-0.69;-0.61;4;8100;-1005
9537;0.26;0.29;-0.69;-0.61;6;8099;-1011
9556;0.26;0.29;-0.69;-0.61;12;8096;-1015
9574;0.26;0.29;-0.69;-0.61;12;8099;-1009
9589;0.26;0.29;-0.69;-0.61;8;8097;-1016
9608;0.26;0.29;-0.69;-0.61;4;8095;-1014
9625;0.26;0.29;-0.69;-0.61;4;8095;-1019
9642;0.26;0.30;-0.69;-0.61;4;8098;-1022
9660;0.26;0.30;-0.69;-0.61;4;8103;-1025
9677;0.26;0.30;-0.69;-0.61;10;8104;-1020
9696;0.26;0.29;-0.69;-0.61;13;8104;-1021
9713;0.26;0.30;-0.69;-0.61;9;8102;-1019
9730;0.26;0.30;-0.69;-0.61;12;8101;-1021
9751;0.26;0.30;-0.69;-0.61;12;8101;-1018
9768;0.26;0.30;-0.69;-0.61;15;8102;-1017
9788;0.26;0.30;-0.69;-0.61;11;8106;-1010
9806;0.26;0.30;-0.69;-0.61;13;8107;-1015
9824;0.26;0.30;-0.69;-0.61;13;8105;-1010
9845;0.26;0.30;-0.69;-0.61;11;8102;-1011
9864;0.26;0.30;-0.69;-0.61;11;8100;-1010
9881;0.26;0.30;-0.69;-0.61;5;8100;-1009
9897;0.26;0.30;-0.69;-0.61;-1;8098;-1018
9915;0.26;0.30;-0.69;-0.61;3;8102;-1018
9934;0.26;0.30;-0.69;-0.61;6;8100;-1011
9952;0.26;0.30;-0.69;-0.61;7;8102;-1015
9969;0.26;0.30;-0.69;-0.61;9;8104;-1012
9996;0.26;0.30;-0.69;-0.61;5;8106;-1015
10014;0.26;0.30;-0.69;-0.61;7;8106;-1014
10029;0.26;0.30;-0.69;-0.61;8;8108;-1016
10048;0.26;0.30;-0.69;-0.61;10;8105;-1013
10066;0.26;0.30;-0.69;-0.61;9;8102;-1009
10085;0.26;0.30;-0.69;-0.61;11;8101;-1005
10101;0.26;0.30;-0.69;-0.61;14;8100;-1007
10119;0.26;0.30;-0.69;-0.61;15;8101;-1006
10137;0.26;0.30;-0.69;-0.61;16;8100;-1005
10155;0.26;0.30;-0.69;-0.61;15;8097;-1013
10172;0.26;0.30;-0.69;-0.61;12;8097;-1020
10189;0.26;0.30;-0.69;-0.61;11;8098;-1018
10211;0.26;0.30;-0.69;-0.61;14;8100;-1015
10228;0.26;0.30;-0.69;-0.61;18;8103;-1012
10247;0.26;0.30;-0.69;-0.61;17;8100;-1005
10264;0.26;0.30;-0.69;-0.61;12;8098;-1001
10281;0.26;0.30;-0.69;-0.61;8;8097;-1002
10299;0.26;0.30;-0.69;-0.61;9;8098;-1003
10317;0.26;0.30;-0.69;-0.61;10;8100;-1006
10335;0.26;0.30;-0.69;-0.61;9;8101;-1016
10352;0.26;0.30;-0.69;-0.61;10;8104;-1019
10369;0.26;0.30;-0.69;-0.61;9;8104;-1016
10388;0.26;0.30;-0.69;-0.61;12;8105;-1013
10405;0.26;0.30;-0.69;-0.61;13;8105;-1018
10426;0.26;0.30;-0.69;-0.61;10;8104;-1022
10444;0.26;0.30;-0.69;-0.61;13;8102;-1022
10463;0.26;0.30;-0.69;-0.61;18;8105;-1022
10479;0.26;0.30;-0.69;-0.61;14;8113;-1024
10496;0.26;0.30;-0.69;-0.61;9;8114;-1027
10515;0.26;0.30;-0.69;-0.61;4;8113;-1022
10533;0.26;0.30;-0.69;-0.61;7;8112;-1014
10556;0.26;0.29;-0.69;-0.61;13;8105;-1008
10573;0.26;0.29;-0.69;-0.61;14;8104;-1009
10593;0.26;0.29;-0.69;-0.61;15;8106;-1005
10610;0.26;0.29;-0.69;-0.61;16;8103;-1014
10626;0.26;0.29;-0.69;-0.61;13;8108;-1013
10648;0.26;0.29;-0.69;-0.61;9;8108;-1013
10666;0.26;0.29;-0.69;-0.61;9;8109;-1017
10683;0.26;0.29;-0.69;-0.61;8;8109;-1014
10699;0.26;0.29;-0.69;-0.61;11;8107;-1007
10719;0.26;0.29;-0.69;-0.61;9;8108;-1005
10737;0.26;0.29;-0.69;-0.61;7;8107;-1007
10753;0.26;0.29;-0.69;-0.61;7;8107;-1006
10770;0.26;0.29;-0.69;-0.61;4;8109;-1009
10789;0.26;0.29;-0.69;-0.61;3;8108;-1009
10808;0.26;0.29;-0.69;-0.61;6;8105;-1011
10824;0.26;0.29;-0.69;-0.61;4;8103;-1015
10840;0.26;0.29;-0.69;-0.61;5;8104;-1013
10864;0.26;0.29;-0.69;-0.61;8;8103;-1006
10881;0.26;0.29;-0.69;-0.61;11;8103;-1010
10898;0.26;0.29;-0.69;-0.61;12;8101;-1010
10915;0.26;0.29;-0.69;-0.61;11;8104;-1015
10935;0.26;0.29;-0.69;-0.61;12;8102;-1012
10952;0.26;0.29;-0.69;-0.61;11;8102;-1013
10968;0.26;0.29;-0.69;-0.61;11;8103;-1012
10986;0.26;0.29;-0.69;-0.61;13;8107;-1016
11005;0.26;0.29;-0.69;-0.61;11;8106;-1017
11023;0.26;0.29;-0.69;-0.61;8;8103;-1014
11039;0.26;0.29;-0.69;-0.61;8;8100;-1015
11057;0.26;0.29;-0.69;-0.61;14;8101;-1013
11078;0.26;0.29;-0.69;-0.61;13;8105;-1014
11105;0.26;0.29;-0.69;-0.61;8;8114;-1021
11123;0.26;0.29;-0.69;-0.61;11;8113;-1016
11140;0.26;0.29;-0.69;-0.61;14;8110;-1009
11158;0.26;0.29;-0.69;-0.61;12;8107;-1007
11175;0.26;0.29;-0.69;-0.61;16;8102;-1010
11194;0.26;0.29;-0.69;-0.61;19;8099;-1012
11211;0.26;0.29;-0.69;-0.61;17;8101;-1014
11229;0.26;0.29;-0.69;-0.61;21;8101;-1018
11246;0.26;0.29;-0.69;-0.61;21;8100;-1024
11264;0.26;0.29;-0.69;-0.61;23;8104;-1026
11282;0.26;0.29;-0.69;-0.61;19;8107;-1020
11302;0.26;0.29;-0.69;-0.61;13;8108;-1012
11321;0.26;0.29;-0.69;-0.61;12;8107;-1015
11339;0.26;0.29;-0.69;-0.61;12;8106;-1017
11356;0.26;0.29;-0.69;-0.61;17;8105;-1014
11373;0.26;0.29;-0.69;-0.61;16;8101;-1018
11392;0.26;0.29;-0.69;-0.61;12;8105;-1013
11410;0.26;0.29;-0.69;-0.61;9;8108;-1008
11426;0.26;0.29;-0.69;-0.61;7;8107;-1004
11444;0.26;0.29;-0.69;-0.61;1;8106;-1010
11463;0.26;0.29;-0.69;-0.61;-3;8108;-1010
11480;0.26;0.29;-0.69;-0.61;6;8107;-1006
11497;0.26;0.29;-0.69;-0.61;6;8101;-1006
11519;0.26;0.29;-0.69;-0.61;3;8102;-1004
11538;0.26;0.29;-0.69;-0.61;10;8100;-1005
11554;0.26;0.29;-0.69;-0.61;14;8103;-1010
11571;0.26;0.29;-0.69;-0.61;16;8102;-1014
11590;0.26;0.29;-0.69;-0.61;8;8103;-1012
11608;0.26;0.29;-0.69;-0.61;10;8103;-1009
11625;0.26;0.29;-0.69;-0.61;6;8104;-1011
11641;0.26;0.29;-0.69;-0.61;12;8108;-1015
11665;0.26;0.30;-0.69;-0.61;10;8104;-1013
11684;0.26;0.30;-0.69;-0.61;3;8108;-1010
11701;0.26;0.30;-0.69;-0.61;3;8107;-1007
12725;0.26;0.30;-0.69;-0.61;6;8104;-1017
12748;0.26;0.30;-0.69;-0.61;9;8104;-1016
12766;0.26;0.30;-0.69;-0.61;8;8105;-1017
12782;0.26;0.30;-0.69;-0.61;13;8105;-1017
12799;0.26;0.30;-0.69;-0.61;6;8106;-1020
12819;0.26;0.30;-0.69;-0.61;6;8103;-1015
12836;0.26;0.30;-0.69;-0.61;7;8101;-1019
12853;0.26;0.30;-0.69;-0.61;9;8101;-1016
12871;0.26;0.30;-0.69;-0.61;8;8104;-1010
12889;0.26;0.30;-0.69;-0.61;10;8103;-1010
12908;0.26;0.30;-0.69;-0.61;8;8103;-1011
12924;0.26;0.30;-0.69;-0.61;11;8104;-1018
12942;0.26;0.30;-0.69;-0.61;15;8104;-1012
12963;0.26;0.30;-0.69;-0.61;18;8103;-1012
12982;0.26;0.30;-0.69;-0.61;12;8100;-1019
13000;0.26;0.30;-0.69;-0.61;9;8102;-1016
13020;0.26;0.30;-0.69;-0.61;8;8106;-1014
13043;0.26;0.30;-0.69;-0.61;10;8107;-1016
13060;0.26;0.30;-0.69;-0.61;11;8111;-1020
13080;0.26;0.30;-0.69;-0.61;7;8110;-1014
13096;0.26;0.30;-0.69;-0.61;6;8110;-1011
13114;0.26;0.30;-0.69;-0.61;4;8112;-1015
13133;0.26;0.30;-0.69;-0.61;5;8107;-1019
13151;0.26;0.30;-0.69;-0.61;6;8100;-1017
13167;0.26;0.30;-0.69;-0.61;5;8101;-1020
13190;0.26;0.30;-0.69;-0.61;1;8099;-1016
13214;0.26;0.30;-0.69;-0.61;3;8097;-1023
13230;0.26;0.30;-0.69;-0.61;4;8093;-1026
13247;0.26;0.30;-0.69;-0.61;6;8093;-1021
13266;0.26;0.30;-0.69;-0.61;5;8095;-1020
13285;0.26;0.30;-0.69;-0.61;3;8097;-1027
13301;0.26;0.30;-0.69;-0.61;5;8099;-1019
13318;0.26;0.30;-0.69;-0.61;8;8102;-1018
13337;0.26;0.30;-0.69;-0.61;6;8102;-1017
13356;0.26;0.30;-0.69;-0.61;6;8106;-1019
13373;0.26;0.30;-0.69;-0.61;6;8107;-1019
13389;0.26;0.30;-0.69;-0.61;9;8106;-1013
13412;0.26;0.30;-0.69;-0.61;8;8108;-1018
13429;0.26;0.30;-0.69;-0.61;12;8107;-1019
13447;0.26;0.30;-0.69;-0.61;7;8107;-1015
13464;0.26;0.30;-0.69;-0.61;5;8108;-1013
13483;0.26;0.30;-0.69;-0.61;4;8106;-1017
13501;0.26;0.30;-0.69;-0.61;8;8105;-1017
13517;0.26;0.30;-0.69;-0.61;11;8104;-1022
13535;0.26;0.30;-0.69;-0.61;9;8102;-1017
13554;0.26;0.30;-0.69;-0.61;9;8110;-1010
13571;0.26;0.30;-0.69;-0.61;5;8112;-1012
13588;0.26;0.30;-0.69;-0.61;5;8109;-1016
13605;0.26;0.30;-0.69;-0.61;0;8106;-1018
13628;0.26;0.30;-0.69;-0.61;4;8104;-1014
13645;0.26;0.30;-0.69;-0.61;16;8103;-1004
13663;0.26;0.30;-0.69;-0.61;13;8106;-1002
13681;0.26;0.30;-0.69;-0.61;15;8104;-1004
13698;0.26;0.30;-0.69;-0.61;16;8105;-1001
13716;0.26;0.30;-0.69;-0.61;18;8106;-1010
13734;0.26;0.30;-0.69;-0.61;18;8104;-1014
13752;0.26;0.30;-0.69;-0.61;15;8100;-1016
13774;0.26;0.29;-0.69;-0.61;7;8105;-1008
13792;0.26;0.29;-0.69;-0.61;11;8107;-1010
13810;0.26;0.29;-0.69;-0.61;17;8102;-1009
13827;0.26;0.29;-0.69;-0.61;14;8100;-1010
13848;0.26;0.29;-0.69;-0.61;12;8102;-1009
13867;0.26;0.29;-0.69;-0.61;13;8105;-1017
13885;0.26;0.29;-0.69;-0.61;11;8103;-1016
13901;0.26;0.29;-0.69;-0.61;13;8102;-1017
13919;0.26;0.29;-0.69;-0.61;13;8101;-1017
13938;0.26;0.29;-0.69;-0.61;11;8105;-1019
13955;0.26;0.29;-0.69;-0.61;10;8107;-1023
13972;0.26;0.29;-0.69;-0.61;12;8104;-1025
13990;0.26;0.29;-0.69;-0.61;8;8103;-1023
14009;0.26;0.29;-0.69;-0.61;5;8103;-1018
14026;0.26;0.29;-0.69;-0.61;5;8105;-1016
14043;0.26;0.29;-0.69;-0.61;8;8104;-1017
14065;0.26;0.29;-0.69;-0.61;6;8108;-1014
14083;0.26;0.29;-0.69;-0.61;6;8109;-1013
14100;0.26;0.29;-0.69;-0.61;8;8104;-1015
14116;0.26;0.29;-0.69;-0.61;9;8105;-1012
14135;0.26;0.29;-0.69;-0.61;11;8105;-1009
14153;0.26;0.29;-0.69;-0.61;7;8105;-1009
14168;0.26;0.29;-0.69;-0.61;5;8101;-1004
14187;0.26;0.29;-0.69;-0.61;7;8102;-1003
14205;0.26;0.29;-0.69;-0.61;9;8104;-1003
14223;0.26;0.29;-0.69;-0.61;11;8104;-1006
14239;0.26;0.29;-0.69;-0.61;17;8099;-1005
14258;0.26;0.29;-0.69;-0.61;15;8099;-1010
14279;0.26;0.29;-0.69;-0.61;12;8098;-1015
14296;0.26;0.29;-0.69;-0.61;12;8097;-1017
14324;0.26;0.29;-0.69;-0.61;13;8095;-1021
14342;0.26;0.29;-0.69;-0.61;8;8094;-1023
14360;0.26;0.29;-0.69;-0.61;11;8097;-1028
14377;0.26;0.29;-0.69;-0.61;10;8097;-1023
14395;0.26;0.29;-0.69;-0.61;10;8098;-1027
14412;0.26;0.29;-0.69;-0.61;9;8096;-1025
14431;0.26;0.29;-0.69;-0.61;8;8096;-1026
14448;0.26;0.29;-0.69;-0.61;6;8094;-1022
14465;0.26;0.29;-0.69;-0.61;10;8090;-1018
14483;0.26;0.29;-0.69;-0.61;11;8093;-1016
14503;0.26;0.29;-0.69;-0.61;13;8099;-1013
14523;0.26;0.29;-0.69;-0.61;13;8102;-1010
14540;0.26;0.29;-0.69;-0.61;11;8103;-1010
14557;0.26;0.29;-0.69;-0.61;7;8101;-1016
14574;0.26;0.29;-0.69;-0.61;10;8101;-1017
14593;0.26;0.29;-0.69;-0.61;10;8100;-1019
14611;0.26;0.29;-0.69;-0.61;13;8099;-1009
14627;0.26;0.29;-0.69;-0.61;8;8101;-1005
14645;0.26;0.29;-0.69;-0.61;3;8101;-1010
14663;0.26;0.29;-0.69;-0.61;4;8101;-1019
14681;0.26;0.29;-0.69;-0.61;6;8100;-1025
14697;0.26;0.29;-0.69;-0.61;5;8101;-1019
14719;0.26;0.29;-0.69;-0.61;4;8102;-1018
14738;0.26;0.29;-0.69;-0.61;4;8103;-1016
14754;0.26;0.29;-0.69;-0.61;6;8101;-1018
14771;0.26;0.29;-0.69;-0.61;2;8101;-1016
14790;0.26;0.29;-0.69;-0.61;2;8105;-1014
14808;0.26;0.29;-0.69;-0.61;6;8105;-1016
14825;0.26;0.29;-0.69;-0.61;4;8106;-1021
14841;0.26;0.29;-0.69;-0.61;7;8105;-1013
14861;0.26;0.29;-0.69;-0.61;9;8104;-1007
14883;0.26;0.29;-0.69;-0.61;9;8105;-1026
14900;0.26;0.29;-0.69;-0.61;5;8107;-1024
14916;0.26;0.29;-0.69;-0.61;3;8109;-1021
14935;0.26;0.29;-0.69;-0.61;4;8111;-1022
14957;0.26;0.29;-0.69;-0.61;5;8113;-1014
14973;0.26;0.29;-0.69;-0.61;7;8113;-1014
14991;0.26;0.29;-0.69;-0.61;10;8112;-1014
15010;0.26;0.29;-0.69;-0.61;6;8104;-1013
15028;0.26;0.29;-0.69;-0.61;3;8105;-1006
15044;0.26;0.29;-0.69;-0.61;3;8106;-1010
15061;0.26;0.29;-0.69;-0.61;6;8106;-1013
15081;0.26;0.29;-0.69;-0.61;12;8108;-1017
15099;0.26;0.29;-0.69;-0.61;11;8104;-1023
15117;0.26;0.29;-0.69;-0.61;13;8099;-1023
15138;0.26;0.29;-0.69;-0.61;10;8099;-1021
15157;0.26;0.29;-0.69;-0.61;10;8102;-1017
15177;0.26;0.29;-0.69;-0.61;4;8104;-1016
15196;0.26;0.29;-0.69;-0.61;6;8108;-1016
15214;0.26;0.29;-0.69;-0.61;9;8106;-1024
15238;0.26;0.29;-0.69;-0.61;9;8105;-1023
15254;0.26;0.29;-0.69;-0.61;10;8102;-1021
15270;0.26;0.29;-0.69;-0.61;9;8102;-1022
15288;0.26;0.29;-0.69;-0.61;13;8106;-1019
15307;0.26;0.29;-0.69;-0.61;14;8108;-1017
15325;0.26;0.29;-0.69;-0.61;15;8105;-1011
15341;0.26;0.29;-0.69;-0.61;14;8106;-1008
15358;0.26;0.29;-0.69;-0.61;16;8109;-1007
15378;0.26;0.29;-0.69;-0.61;16;8104;-1009
15398;0.26;0.29;-0.69;-0.61;11;8107;-1009
15424;0.26;0.29;-0.69;-0.61;8;8104;-1027
15441;0.26;0.29;-0.69;-0.61;11;8105;-1021
15459;0.26;0.29;-0.69;-0.61;6;8102;-1023
15476;0.26;0.29;-0.69;-0.61;9;8101;-1020
15494;0.26;0.29;-0.69;-0.61;6;8103;-1018
15512;0.26;0.29;-0.69;-0.61;4;8099;-1015
15529;0.26;0.29;-0.69;-0.61;6;8097;-1016
15547;0.26;0.29;-0.69;-0.61;10;8095;-1019
16573;0.26;0.29;-0.69;-0.61;8;8093;-1016
16590;0.26;0.29;-0.69;-0.61;9;8096;-1014
16608;0.26;0.29;-0.69;-0.61;9;8094;-1015
16629;0.26;0.29;-0.69;-0.61;8;8096;-1016
16648;0.26;0.29;-0.69;-0.61;4;8100;-1019
16663;0.26;0.29;-0.69;-0.61;4;8100;-1019
16681;0.26;0.29;-0.69;-0.61;0;8100;-1019
16700;0.26;0.29;-0.69;-0.61;0;8102;-1013
16717;0.26;0.29;-0.69;-0.61;2;8103;-1012
16734;0.26;0.29;-0.69;-0.61;7;8106;-1011
16752;0.26;0.29;-0.69;-0.61;7;8107;-1011
16770;0.26;0.29;-0.69;-0.61;4;8109;-1010
16788;0.26;0.29;-0.69;-0.61;2;8108;-1011
16804;0.26;0.29;-0.69;-0.61;0;8111;-1013
16822;0.26;0.29;-0.69;-0.61;6;8114;-1019
16845;0.26;0.29;-0.69;-0.61;9;8110;-1013
16862;0.26;0.29;-0.69;-0.61;9;8107;-1007
16878;0.26;0.29;-0.69;-0.61;9;8105;-1013
16897;0.26;0.29;-0.69;-0.61;7;8103;-1021
16916;0.26;0.29;-0.69;-0.61;9;8101;-1011
16932;0.26;0.29;-0.69;-0.61;8;8102;-1008
16949;0.26;0.29;-0.69;-0.61;10;8105;-1004
16968;0.26;0.29;-0.69;-0.61;8;8106;-1005
16993;0.26;0.29;-0.69;-0.61;2;8108;-1029
17009;0.26;0.29;-0.69;-0.61;-1;8108;-1023
17025;0.26;0.29;-0.69;-0.61;1;8110;-1023
17045;0.26;0.29;-0.69;-0.61;3;8110;-1018
17066;0.26;0.29;-0.69;-0.61;4;8110;-1015
17083;0.26;0.29;-0.69;-0.61;7;8113;-1013
17100;0.26;0.29;-0.69;-0.61;5;8110;-1016
17120;0.26;0.29;-0.69;-0.61;5;8105;-1011
17137;0.26;0.29;-0.69;-0.61;6;8102;-1017
17153;0.26;0.29;-0.69;-0.61;9;8099;-1021
17171;0.26;0.29;-0.69;-0.61;9;8101;-1019
17190;0.26;0.29;-0.69;-0.61;6;8100;-1021
17208;0.26;0.29;-0.69;-0.61;6;8102;-1018
17224;0.26;0.29;-0.69;-0.61;7;8097;-1009
17243;0.26;0.29;-0.69;-0.61;4;8096;-1007
17261;0.26;0.29;-0.69;-0.61;7;8099;-1007
17281;0.26;0.29;-0.69;-0.61;12;8106;-1016
17300;0.26;0.29;-0.69;-0.61;12;8103;-1012
17317;0.26;0.29;-0.69;-0.61;15;8102;-1008
17335;0.26;0.29;-0.69;-0.61;17;8104;-1011
17353;0.26;0.29;-0.69;-0.61;14;8103;-1007
17371;0.26;0.29;-0.69;-0.61;15;8107;-1007
17388;0.26;0.29;-0.69;-0.61;10;8108;-1005
17406;0.26;0.29;-0.69;-0.61;9;8107;-1003
17424;0.26;0.29;-0.69;-0.61;9;8108;-1007
17441;0.26;0.29;-0.69;-0.61;12;8109;-1009
17459;0.26;0.29;-0.69;-0.61;14;8106;-1011
17477;0.26;0.29;-0.69;-0.61;16;8107;-1006
17499;0.26;0.29;-0.69;-0.61;14;8106;-1010
17516;0.26;0.29;-0.69;-0.61;10;8105;-1009
17543;0.26;0.29;-0.69;-0.61;9;8095;-1017
17561;0.26;0.29;-0.69;-0.61;8;8095;-1010
17579;0.26;0.29;-0.69;-0.61;4;8100;-1000
17597;0.26;0.29;-0.69;-0.61;3;8102;-1003
17613;0.26;0.29;-0.69;-0.61;5;8102;-1006
17632;0.26;0.29;-0.69;-0.61;3;8103;-1003
17650;0.26;0.29;-0.69;-0.61;5;8107;-1007
17668;0.26;0.29;-0.69;-0.61;6;8105;-1006
17685;0.26;0.29;-0.69;-0.61;4;8104;-1010
17702;0.26;0.29;-0.69;-0.61;6;8105;-1019
17725;0.26;0.29;-0.69;-0.61;7;8104;-1022
17742;0.26;0.29;-0.69;-0.61;7;8106;-1015
17759;0.26;0.29;-0.69;-0.61;6;8105;-1024
17777;0.26;0.29;-0.69;-0.61;5;8103;-1021
17796;0.26;0.29;-0.69;-0.61;11;8103;-1024
17813;0.26;0.29;-0.69;-0.61;12;8100;-1027
17829;0.26;0.29;-0.69;-0.61;14;8096;-1021
17848;0.26;0.29;-0.69;-0.61;14;8100;-1018
17867;0.26;0.29;-0.69;-0.61;11;8102;-1019
17884;0.26;0.29;-0.69;-0.61;12;8104;-1014
17900;0.26;0.29;-0.69;-0.61;11;8109;-1010
17919;0.26;0.29;-0.69;-0.61;9;8108;-1011
17941;0.26;0.29;-0.69;-0.61;9;8109;-1007
17957;0.26;0.29;-0.69;-0.61;11;8112;-1010
17975;0.26;0.29;-0.69;-0.61;15;8106;-1011
17994;0.26;0.29;-0.69;-0.61;13;8106;-1019
18012;0.26;0.29;-0.69;-0.61;12;8105;-1019
18028;0.26;0.29;-0.69;-0.61;14;8105;-1017
18045;0.26;0.29;-0.69;-0.61;14;8102;-1010
18065;0.26;0.29;-0.69;-0.61;12;8103;-1008
18092;0.26;0.29;-0.69;-0.61;9;8101;-1010
18109;0.26;0.29;-0.69;-0.61;9;8100;-1010
18126;0.26;0.29;-0.69;-0.61;9;8098;-1012
18146;0.26;0.29;-0.69;-0.61;7;8094;-1009
18168;0.26;0.29;-0.69;-0.61;7;8094;-1009
18190;0.26;0.29;-0.69;-0.61;8;8095;-1013
18206;0.26;0.29;-0.69;-0.61;11;8101;-1016
18226;0.26;0.29;-0.69;-0.61;12;8100;-1019
18243;0.26;0.29;-0.69;-0.61;13;8098;-1026
18259;0.26;0.29;-0.69;-0.61;11;8101;-1027
18278;0.26;0.29;-0.69;-0.61;10;8106;-1017
18297;0.26;0.29;-0.69;-0.61;13;8104;-1018
18315;0.26;0.29;-0.69;-0.61;10;8102;-1016
18331;0.26;0.29;-0.69;-0.61;8;8101;-1014
18348;0.26;0.29;-0.69;-0.61;10;8104;-1005
18368;0.26;0.29;-0.69;-0.61;13;8103;-1008
18388;0.26;0.29;-0.69;-0.61;11;8107;-1012
18408;0.26;0.29;-0.69;-0.61;15;8108;-1008
18426;0.26;0.29;-0.69;-0.61;16;8110;-1017
18448;0.26;0.29;-0.69;-0.61;16;8110;-1021
18464;0.26;0.29;-0.69;-0.61;12;8106;-1017
18483;0.26;0.29;-0.69;-0.61;6;8104;-1016
18500;0.26;0.29;-0.69;-0.61;4;8106;-1018
18517;0.26;0.29;-0.69;-0.61;5;8102;-1015
18536;0.26;0.29;-0.69;-0.61;4;8102;-1020
18553;0.26;0.29;-0.69;-0.61;2;8102;-1018
18571;0.26;0.29;-0.69;-0.61;4;8104;-1017
18588;0.26;0.29;-0.69;-0.61;7;8103;-1014
18611;0.26;0.29;-0.69;-0.61;956;-23218;3515
18632;0.26;0.29;-0.69;-0.61;6;8102;-1014
18648;0.26;0.29;-0.69;-0.61;11;8098;-1010
18666;0.26;0.29;-0.69;-0.61;11;8100;-1008
18685;0.26;0.29;-0.69;-0.61;10;8099;-1010
18702;0.26;0.29;-0.69;-0.61;14;8098;-1009
18718;0.26;0.29;-0.69;-0.61;16;8101;-1009
18737;0.26;0.29;-0.69;-0.61;14;8104;-1010
18756;0.26;0.29;-0.69;-0.61;13;8103;-1013
18771;0.26;0.29;-0.69;-0.61;16;8097;-1011
18788;0.26;0.29;-0.69;-0.61;20;8095;-1008
18807;0.26;0.29;-0.69;-0.61;21;8097;-1008
18829;0.26;0.29;-0.69;-0.61;14;8094;-1006
18845;0.26;0.29;-0.69;-0.61;11;8095;-1005
18862;0.26;0.29;-0.69;-0.61;14;8095;-1003
18882;0.26;0.29;-0.69;-0.61;8;8096;-1004
18899;0.26;0.29;-0.69;-0.61;8;8098;-1001
18916;0.26;0.29;-0.69;-0.61;7;8099;-1007
18933;0.26;0.29;-0.69;-0.61;10;8100;-1009
18953;0.26;0.29;-0.69;-0.61;11;8099;-1011
18970;0.26;0.29;-0.69;-0.61;11;8100;-1010
18986;0.26;0.29;-0.69;-0.61;9;8102;-1006
19004;0.26;0.29;-0.69;-0.61;11;8097;-1012
19023;0.26;0.29;-0.69;-0.61;12;8096;-1019
19044;0.26;0.29;-0.69;-0.61;11;8098;-1016
19061;0.26;0.29;-0.69;-0.61;9;8102;-1011
19079;0.26;0.29;-0.69;-0.61;12;8099;-1014
19097;0.26;0.29;-0.69;-0.61;9;8104;-1011
19114;0.26;0.29;-0.69;-0.61;12;8101;-1012
19132;0.26;0.29;-0.69;-0.61;8;8103;-1013
19149;0.26;0.29;-0.69;-0.61;10;8103;-1015
19167;0.26;0.29;-0.69;-0.61;10;8101;-1016
19192;0.26;0.29;-0.69;-0.61;19;8098;-1019
19211;0.26;0.29;-0.69;-0.61;15;8100;-1020
19228;0.26;0.29;-0.69;-0.61;14;8103;-1021
19245;0.26;0.29;-0.69;-0.61;10;8105;-1015
19267;0.26;0.29;-0.69;-0.61;9;8107;-1017
19284;0.26;0.29;-0.69;-0.61;6;8108;-1018
19301;0.26;0.29;-0.69;-0.61;3;8108;-1018
19319;0.26;0.29;-0.69;-0.61;5;8108;-1016
19338;0.26;0.29;-0.69;-0.61;6;8106;-1019
19355;0.26;0.29;-0.69;-0.61;7;8104;-1027
19371;0.26;0.29;-0.69;-0.61;7;8104;-1031
19389;0.26;0.29;-0.69;-0.61;6;8100;-1030
20412;0.26;0.29;-0.69;-0.61;11;8100;-1009
20429;0.26;0.29;-0.69;-0.61;9;8101;-1007
20446;0.26;0.29;-0.69;-0.61;11;8099;-1006
20463;0.26;0.29;-0.69;-0.61;11;8099;-1009
20537;0.26;0.29;-0.69;-0.61;11;8100;-1011
20556;0.26;0.29;-0.69;-0.61;8;8104;-1010
20577;0.26;0.29;-0.69;-0.61;5;8104;-1005
20596;0.26;0.29;-0.69;-0.61;7;8106;-1002
20615;0.26;0.29;-0.69;-0.61;8;8108;-1003
20634;0.26;0.29;-0.69;-0.61;11;8102;-998
20654;0.26;0.29;-0.69;-0.61;15;8106;-1000
20683;0.26;0.29;-0.69;-0.61;16;8105;-1013
20704;0.26;0.29;-0.69;-0.61;16;8104;-1003
20723;0.26;0.29;-0.69;-0.61;17;8105;-1001
20743;0.26;0.29;-0.69;-0.61;16;8105;-999
20763;0.26;0.29;-0.69;-0.61;18;8105;-999
20786;0.26;0.29;-0.69;-0.61;18;8107;-1002
20807;0.26;0.29;-0.69;-0.61;16;8101;-1005
20827;0.26;0.29;-0.69;-0.61;14;8103;-1012
20845;0.26;0.29;-0.69;-0.61;11;8103;-1013
20865;0.26;0.29;-0.69;-0.61;10;8102;-1016
20886;0.26;0.29;-0.69;-0.61;10;8101;-1017
20906;0.26;0.29;-0.69;-0.61;10;8101;-1014
20925;0.26;0.29;-0.69;-0.61;13;8102;-1015
20944;0.26;0.29;-0.69;-0.61;10;8100;-1015
20966;0.26;0.29;-0.69;-0.61;9;8098;-1020
20985;0.26;0.29;-0.69;-0.61;6;8100;-1023
21004;0.26;0.29;-0.69;-0.61;7;8103;-1017
21028;0.26;0.29;-0.69;-0.61;14;8101;-1013
21049;0.26;0.29;-0.69;-0.61;11;8100;-1012
21067;0.26;0.29;-0.69;-0.61;10;8096;-1012
21086;0.26;0.29;-0.69;-0.61;13;8097;-1020
21107;0.26;0.29;-0.69;-0.61;14;8093;-1022
21129;0.26;0.29;-0.69;-0.61;14;8098;-1018
21147;0.26;0.29;-0.69;-0.61;11;8097;-1012
21174;0.26;0.29;-0.69;-0.61;8;8102;-1002
21195;0.26;0.29;-0.69;-0.61;7;8100;-1001
21216;0.26;0.29;-0.69;-0.61;6;8104;-1003
21234;0.26;0.29;-0.69;-0.61;7;8102;-1010
21252;0.26;0.29;-0.69;-0.61;8;8101;-1013
21278;0.26;0.29;-0.69;-0.61;7;8099;-1010
21298;0.26;0.29;-0.69;-0.61;8;8099;-1015
21316;0.26;0.29;-0.69;-0.61;6;8095;-1010
21336;0.26;0.29;-0.69;-0.61;9;8096;-1007
21357;0.26;0.29;-0.69;-0.61;9;8094;-1012
21376;0.26;0.29;-0.69;-0.61;9;8096;-1011
21395;0.26;0.29;-0.69;-0.61;12;8094;-1014
21415;0.26;0.29;-0.69;-0.61;11;8090;-1016
21437;0.26;0.29;-0.69;-0.61;12;8088;-1014
21456;0.26;0.29;-0.69;-0.61;9;8092;-1015
21475;0.26;0.29;-0.69;-0.61;9;8097;-1010
21494;0.26;0.29;-0.69;-0.61;11;8100;-1013
21516;0.26;0.29;-0.69;-0.61;6;8099;-1011
21538;0.26;0.29;-0.69;-0.61;4;8099;-1014
21559;0.26;0.29;-0.69;-0.61;4;8097;-1010
21578;0.26;0.29;-0.69;-0.61;5;8093;-1016
21598;0.26;0.29;-0.69;-0.61;9;8095;-1014
21618;0.26;0.29;-0.69;-0.61;9;8094;-1016
21638;0.26;0.29;-0.69;-0.61;8;8094;-1014
21663;0.26;0.29;-0.69;-0.61;9;8106;-1012
21684;0.26;0.29;-0.69;-0.61;11;8102;-1013
21703;0.26;0.29;-0.69;-0.61;9;8104;-1017
21725;0.26;0.29;-0.69;-0.61;11;8104;-1017
21745;0.26;0.29;-0.69;-0.61;9;8105;-1013
21770;0.26;0.29;-0.69;-0.61;13;8105;-1007
21792;0.26;0.29;-0.69;-0.61;16;8108;-1011
21813;0.26;0.29;-0.69;-0.61;15;8105;-1017
21831;0.26;0.29;-0.69;-0.61;16;8106;-1021
21851;0.26;0.29;-0.69;-0.61;18;8107;-1014
21872;0.26;0.29;-0.69;-0.61;20;8103;-1014
21891;0.26;0.29;-0.69;-0.61;18;8107;-1015
21911;0.26;0.29;-0.69;-0.61;14;8114;-1011
21930;0.26;0.29;-0.69;-0.61;11;8114;-1009
21952;0.26;0.29;-0.69;-0.61;10;8111;-1011
21971;0.26;0.29;-0.69;-0.61;10;8105;-1013
21991;0.26;0.29;-0.69;-0.61;5;8100;-1016
22010;0.26;0.29;-0.69;-0.61;8;8098;-1019
22036;0.26;0.29;-0.69;-0.61;9;8099;-1018
22054;0.26;0.29;-0.69;-0.61;10;8100;-1014
22073;0.26;0.29;-0.69;-0.61;12;8104;-1011
22094;0.26;0.29;-0.69;-0.61;16;8101;-1005
22116;0.26;0.29;-0.69;-0.61;9;8101;-1009
22143;0.26;0.29;-0.69;-0.61;8;8103;-1013
22162;0.26;0.29;-0.69;-0.61;9;8102;-1011
22183;0.26;0.29;-0.69;-0.61;12;8101;-1008
22204;0.26;0.29;-0.69;-0.61;13;8104;-1019
22223;0.26;0.29;-0.69;-0.61;15;8103;-1027
22242;0.26;0.29;-0.69;-0.61;18;8103;-1026
22263;0.26;0.29;-0.69;-0.61;16;8105;-1021
22288;0.26;0.29;-0.69;-0.61;15;8099;-1021
22308;0.26;0.29;-0.69;-0.61;13;8099;-1018
22379;0.26;0.29;-0.69;-0.61;12;8101;-1024
22399;0.26;0.29;-0.69;-0.61;15;8099;-1023
22419;0.26;0.29;-0.69;-0.61;18;8106;-1011
22438;0.26;0.29;-0.69;-0.61;19;8106;-1020
22458;0.26;0.29;-0.69;-0.61;17;8106;-1022
22477;0.26;0.29;-0.69;-0.61;16;8103;-1013
22499;0.26;0.29;-0.69;-0.61;15;8099;-1004
22518;0.26;0.29;-0.69;-0.61;14;8099;-1008
22538;0.26;0.29;-0.69;-0.61;17;8100;-1012
22557;0.26;0.29;-0.69;-0.61;17;8101;-1011
22593;0.26;0.29;-0.69;-0.61;3;8105;-1023
22611;0.26;0.29;-0.69;-0.61;7;8105;-1020
22630;0.26;0.29;-0.69;-0.61;10;8105;-1017
22651;0.26;0.29;-0.69;-0.61;14;8107;-1010
22672;0.26;0.29;-0.69;-0.61;13;8109;-1012
22690;0.26;0.29;-0.69;-0.61;12;8106;-1020
22710;0.26;0.29;-0.69;-0.61;12;8104;-1024
22731;0.26;0.29;-0.69;-0.61;10;8101;-1027
22752;0.26;0.29;-0.69;-0.61;6;8102;-1024
22770;0.26;0.29;-0.69;-0.61;10;8104;-1015
22790;0.26;0.29;-0.69;-0.61;10;8101;-1021
22810;0.26;0.29;-0.69;-0.61;9;8100;-1022
22835;0.26;0.29;-0.69;-0.61;11;8100;-1022
22853;0.26;0.29;-0.69;-0.61;11;8101;-1013
22872;0.26;0.29;-0.69;-0.61;11;8102;-1010
22894;0.26;0.29;-0.69;-0.61;12;8102;-1002
22913;0.26;0.29;-0.69;-0.61;16;8100;-1005
22933;0.26;0.29;-0.69;-0.61;18;8100;-1006
22952;0.26;0.29;-0.69;-0.61;15;8102;-1011
22974;0.26;0.29;-0.69;-0.61;10;8105;-1012
22993;0.26;0.29;-0.69;-0.61;7;8102;-1005
23012;0.26;0.29;-0.69;-0.61;5;8105;-1004
23032;0.26;0.29;-0.69;-0.61;6;8103;-1008
23054;0.26;0.29;-0.69;-0.61;3;8103;-1011
23082;0.26;0.29;-0.69;-0.61;18;8104;-1008
23102;0.26;0.29;-0.69;-0.61;17;8105;-1011
23122;0.26;0.29;-0.69;-0.61;19;8108;-1007
23142;0.26;0.29;-0.69;-0.61;22;8109;-1005
23162;0.26;0.29;-0.69;-0.61;22;8110;-1016
23182;0.26;0.29;-0.69;-0.61;20;8109;-1019
23202;0.26;0.29;-0.69;-0.61;19;8107;-1021
23222;0.26;0.29;-0.69;-0.61;17;8104;-1024
23241;0.26;0.29;-0.69;-0.61;14;8105;-1014
23262;0.26;0.29;-0.69;-0.61;9;8105;-1009
23281;0.26;0.29;-0.69;-0.61;9;8104;-1007
23302;0.26;0.29;-0.69;-0.61;6;8102;-1001
23325;0.26;0.29;-0.69;-0.61;7;8097;-1006
23346;0.26;0.29;-0.69;-0.61;10;8099;-1011
23364;0.26;0.29;-0.69;-0.61;6;8102;-1012
23383;0.26;0.29;-0.69;-0.61;2;8101;-1009
23405;0.26;0.29;-0.69;-0.61;0;8100;-1013
23424;0.26;0.29;-0.69;-0.61;-2;8098;-1013
23443;0.26;0.29;-0.69;-0.61;-1;8097;-1017
23463;0.26;0.29;-0.69;-0.61;3;8099;-1017
23484;0.26;0.29;-0.69;-0.61;5;8101;-1018
23504;0.26;0.29;-0.69;-0.61;6;8101;-1013
23523;0.26;0.29;-0.69;-0.61;7;8101;-1010
23542;0.26;0.29;-0.69;-0.61;5;8097;-1009
23572;0.26;0.29;-0.69;-0.61;16;8100;-1013
23590;0.26;0.29;-0.69;-0.61;14;8101;-1017
23609;0.26;0.29;-0.69;-0.61;16;8103;-1017
23630;0.26;0.29;-0.69;-0.61;21;8103;-1018
23651;0.26;0.29;-0.69;-0.61;21;8101;-1016
23670;0.26;0.29;-0.69;-0.61;17;8098;-1022
24692;0.26;0.29;-0.69;-0.61;2;8108;-1020
24714;0.26;0.29;-0.69;-0.61;7;8104;-1017
24734;0.26;0.29;-0.69;-0.61;7;8104;-1019
24753;0.26;0.29;-0.69;-0.61;7;8103;-1021
24771;0.26;0.29;-0.69;-0.61;4;8101;-1015
24792;0.26;0.29;-0.69;-0.61;7;8103;-1008
24816;0.26;0.29;-0.69;-0.61;3;8103;-1009
24834;0.26;0.29;-0.69;-0.61;5;8103;-1005
24854;0.26;0.29;-0.69;-0.61;8;8105;-1007
24875;0.26;0.29;-0.69;-0.61;6;8106;-1011
24895;0.26;0.29;-0.69;-0.61;12;8105;-1018
24913;0.26;0.29;-0.69;-0.61;14;8106;-1020
24934;0.26;0.29;-0.69;-0.61;11;8105;-1019
24955;0.26;0.29;-0.69;-0.61;16;8106;-1021
24975;0.26;0.29;-0.69;-0.61;20;8107;-1022
24993;0.26;0.29;-0.69;-0.61;21;8106;-1016
25013;0.26;0.29;-0.69;-0.61;17;8103;-1017
25034;0.26;0.29;-0.69;-0.61;16;8103;-1020
25057;0.26;0.29;-0.69;-0.61;17;8105;-1022
25081;0.26;0.29;-0.69;-0.61;13;8104;-1007
25101;0.26;0.29;-0.69;-0.61;12;8107;-1009
25122;0.26;0.29;-0.69;-0.61;14;8111;-1009
25143;0.26;0.29;-0.69;-0.61;9;8111;-1011
25355;0.26;0.29;-0.69;-0.61;9;8112;-1014
25381;0.26;0.29;-0.69;-0.61;13;8098;-1020
25402;0.26;0.29;-0.69;-0.61;11;8098;-1018
25422;0.26;0.29;-0.69;-0.61;4;8093;-1017
25443;0.26;0.29;-0.69;-0.61;8;8093;-1013
25463;0.26;0.29;-0.69;-0.61;8;8097;-1008
25490;0.26;0.29;-0.69;-0.61;8;8098;-1010
25515;0.26;0.29;-0.69;-0.61;10;8099;-1008
25535;0.26;0.29;-0.69;-0.61;5;8099;-1011
25554;0.26;0.29;-0.69;-0.61;7;8098;-1014
25575;0.26;0.29;-0.69;-0.61;10;8099;-1013
25595;0.26;0.29;-0.69;-0.61;12;8107;-1013
25614;0.26;0.29;-0.69;-0.61;9;8106;-1007
25636;0.26;0.29;-0.69;-0.61;10;8101;-1001
25657;0.26;0.29;-0.69;-0.61;7;8103;-1002
25677;0.26;0.29;-0.69;-0.61;8;8102;-994
25697;0.26;0.29;-0.69;-0.61;9;8102;-996
25715;0.26;0.29;-0.69;-0.61;12;8103;-1010
25736;0.26;0.29;-0.69;-0.61;15;8100;-1012
25759;0.26;0.29;-0.69;-0.61;13;8106;-1012
25779;0.26;0.29;-0.69;-0.61;12;8101;-1017
25798;0.26;0.29;-0.69;-0.61;14;8103;-1013
25819;0.26;0.29;-0.69;-0.61;12;8106;-1015
25839;0.26;0.29;-0.69;-0.61;12;8103;-1013
25862;0.26;0.29;-0.69;-0.61;7;8103;-1018
25881;0.26;0.29;-0.69;-0.61;6;8102;-1020
25901;0.26;0.29;-0.69;-0.61;6;8103;-1015
25922;0.26;0.29;-0.69;-0.61;9;8101;-1014
25941;0.26;0.29;-0.69;-0.61;8;8102;-1016
25960;0.26;0.29;-0.69;-0.61;7;8102;-1016
25980;0.26;0.29;-0.69;-0.61;6;8103;-1019
26004;0.26;0.29;-0.69;-0.61;8;8103;-1021
26023;0.26;0.29;-0.69;-0.61;7;8106;-1025
26043;0.26;0.29;-0.69;-0.61;7;8101;-1030
26063;0.26;0.29;-0.69;-0.61;9;8101;-1027
26084;0.26;0.29;-0.69;-0.61;8;8098;-1019
26103;0.26;0.29;-0.69;-0.61;5;8098;-1010
26122;0.26;0.29;-0.69;-0.61;2;8103;-1006
26142;0.26;0.29;-0.69;-0.61;3;8107;-1006
26163;0.26;0.29;-0.69;-0.61;9;8107;-1005
26182;0.26;0.29;-0.69;-0.61;12;8103;-1009
26201;0.26;0.29;-0.69;-0.61;10;8103;-1009
26222;0.26;0.29;-0.69;-0.61;12;8102;-1009
26246;0.26;0.29;-0.69;-0.61;9;8103;-1013
26265;0.26;0.29;-0.69;-0.61;10;8101;-1017
26283;0.26;0.29;-0.69;-0.61;12;8101;-1015
26305;0.26;0.29;-0.69;-0.61;13;8100;-1016
26324;0.26;0.29;-0.69;-0.61;19;8101;-1011
26351;0.26;0.29;-0.69;-0.61;5;8099;-1015
26370;0.26;0.29;-0.69;-0.61;5;8100;-1013
26391;0.26;0.29;-0.69;-0.61;5;8099;-1013
26411;0.26;0.29;-0.69;-0.61;8;8101;-1018
26430;0.26;0.29;-0.69;-0.61;11;8099;-1017
26449;0.26;0.29;-0.69;-0.61;6;8101;-1021
26470;0.26;0.29;-0.69;-0.61;8;8099;-1018
26493;0.26;0.29;-0.69;-0.61;5;8100;-1017
26513;0.26;0.29;-0.69;-0.61;6;8101;-1013
26532;0.26;0.29;-0.69;-0.61;8;8101;-1008
26553;0.26;0.29;-0.69;-0.61;9;8095;-1012
26573;0.26;0.29;-0.69;-0.61;10;8098;-1012
26592;0.26;0.29;-0.69;-0.61;13;8100;-1007
26611;0.26;0.29;-0.69;-0.61;18;8101;-1004
26632;0.26;0.29;-0.69;-0.61;17;8101;-1004
26652;0.26;0.29;-0.69;-0.61;13;8098;-1005
26671;0.26;0.29;-0.69;-0.61;13;8098;-1014
26693;0.26;0.29;-0.69;-0.61;12;8097;-1015
26715;0.26;0.29;-0.69;-0.61;8;8096;-1017
26738;0.26;0.29;-0.69;-0.61;7;8096;-1015
26758;0.26;0.29;-0.69;-0.61;7;8099;-1012
26776;0.26;0.29;-0.69;-0.61;9;8101;-1009
26799;0.26;0.29;-0.69;-0.61;10;8103;-1015
26820;-0.05;-0.86;-1.27;-1.45;-9963;-1;0
26840;0.26;0.29;-0.69;-0.61;11;8101;-1011
26860;0.26;0.29;-0.69;-0.61;14;8101;-1006
26880;0.26;0.29;-0.69;-0.61;15;8105;-1015
26901;0.26;0.29;-0.69;-0.61;14;8104;-1015
26920;0.26;0.29;-0.69;-0.61;11;8104;-1019
26940;0.26;0.29;-0.69;-0.61;10;8103;-1020
26960;0.26;0.29;-0.69;-0.61;11;8103;-1016
26984;0.26;0.29;-0.69;-0.61;12;8104;-1016
27003;0.26;0.29;-0.69;-0.61;11;8107;-1017
27023;0.26;0.29;-0.69;-0.61;10;8110;-1019
27043;0.26;0.29;-0.69;-0.61;10;8108;-1015
27064;0.26;0.29;-0.69;-0.61;5;8108;-1013
27083;0.26;0.29;-0.69;-0.61;3;8107;-1017
27102;0.26;0.29;-0.69;-0.61;4;8106;-1019
27123;0.26;0.29;-0.69;-0.61;5;8105;-1020
27144;0.26;0.29;-0.69;-0.61;1;8104;-1027
27162;0.26;0.29;-0.69;-0.61;5;8104;-1025
27181;0.26;0.29;-0.69;-0.61;10;8104;-1026
27202;0.26;0.29;-0.69;-0.61;8;8104;-1029
27227;0.26;0.29;-0.69;-0.61;5;8107;-1030
27245;0.26;0.29;-0.69;-0.61;8;8106;-1025
27264;0.26;0.29;-0.69;-0.61;8;8107;-1029
27285;0.26;0.29;-0.69;-0.61;7;8107;-1027
27305;0.26;0.29;-0.69;-0.61;4;8101;-1030
27330;0.26;0.29;-0.69;-0.61;16;8103;-1014
27349;0.26;0.29;-0.69;-0.61;10;8104;-1017
27371;0.26;0.29;-0.69;-0.61;7;8101;-1013
27390;0.26;0.29;-0.69;-0.61;6;8104;-1013
27410;0.26;0.29;-0.69;-0.61;7;8106;-1016
27429;0.26;0.29;-0.69;-0.61;10;8100;-1020
27450;0.26;0.29;-0.69;-0.61;12;8100;-1021
27474;0.26;0.29;-0.69;-0.61;12;8103;-1020
27493;0.26;0.29;-0.69;-0.61;14;8105;-1017
27512;0.26;0.29;-0.69;-0.61;18;8103;-1025
27533;0.26;0.29;-0.69;-0.61;17;8105;-1022
27553;0.26;0.29;-0.69;-0.61;20;8108;-1026
27573;0.26;0.29;-0.69;-0.61;20;8108;-1032
27592;0.26;0.29;-0.69;-0.61;17;8110;-1026
27613;0.26;0.29;-0.69;-0.61;12;8108;-1022
27633;0.26;0.29;-0.69;-0.61;10;8108;-1018
27652;0.26;0.29;-0.69;-0.61;10;8107;-1019
27672;0.26;0.29;-0.69;-0.61;13;8109;-1018
27692;0.26;0.29;-0.69;-0.61;14;8111;-1023
27716;0.26;0.29;-0.69;-0.61;14;8111;-1020
27735;0.26;0.29;-0.69;-0.61;13;8112;-1016
27755;0.26;0.29;-0.69;-0.61;10;8107;-1016
27775;0.26;0.29;-0.69;-0.61;14;8107;-1021
27796;0.26;0.29;-0.69;-0.61;13;8110;-1021
27820;0.26;0.29;-0.69;-0.61;14;8101;-1019
27839;0.26;0.29;-0.69;-0.61;18;8102;-1013
27860;0.26;0.29;-0.69;-0.61;18;8103;-1016
27884;0.26;0.29;-0.69;-0.61;14;8100;-1020
27904;0.26;0.29;-0.69;-0.61;13;8104;-1020
27925;0.26;0.29;-0.69;-0.61;10;8104;-1024
27949;0.26;0.29;-0.69;-0.61;5;8103;-1025
27975;0.26;0.29;-0.69;-0.61;6;8099;-1023
27995;0.26;0.29;-0.69;-0.61;7;8098;-1019
28014;0.26;0.29;-0.69;-0.61;4;8100;-1016
28034;0.26;0.29;-0.69;-0.61;8;8102;-1015
28055;0.26;0.30;-0.69;-0.61;12;8104;-1017
29080;0.26;0.30;-0.69;-0.61;5;8103;-1028
29099;0.26;0.30;-0.69;-0.61;5;8106;-1024
29120;0.26;0.30;-0.69;-0.61;2;8105;-1029
29140;0.26;0.30;-0.69;-0.61;2;8102;-1027
29160;0.26;0.30;-0.69;-0.61;5;8104;-1031
29179;0.26;0.30;-0.69;-0.61;7;8100;-1029
29200;0.26;0.30;-0.69;-0.61;7;8102;-1029
29223;0.26;0.30;-0.69;-0.61;7;8103;-1030
29243;0.26;0.30;-0.69;-0.61;4;8101;-1030
29262;0.26;0.30;-0.69;-0.61;8;8102;-1027
29283;0.26;0.30;-0.69;-0.61;13;8103;-1031
29310;0.26;0.30;-0.69;-0.61;13;8102;-1021
29330;0.26;0.30;-0.69;-0.61;12;8103;-1021
29348;0.26;0.30;-0.69;-0.61;14;8105;-1020
29370;0.26;0.30;-0.69;-0.61;12;8101;-1025
29390;0.26;0.30;-0.69;-0.61;11;8098;-1020
29409;0.26;0.30;-0.69;-0.61;11;8101;-1019
29428;0.26;0.30;-0.69;-0.61;10;8099;-1018
29449;0.26;0.30;-0.69;-0.61;13;8098;-1025
29472;0.26;0.30;-0.69;-0.61;13;8095;-1029
29492;0.26;0.30;-0.69;-0.61;8;8099;-1025
29510;0.26;0.30;-0.69;-0.61;7;8098;-1026
29529;0.26;0.30;-0.69;-0.61;9;8100;-1015
29551;0.26;0.30;-0.69;-0.61;7;8099;-1014
29570;0.26;0.30;-0.69;-0.61;6;8101;-1019
29589;0.26;0.30;-0.69;-0.61;7;8104;-1018
29609;0.26;0.30;-0.69;-0.61;11;8103;-1019
29630;0.26;0.30;-0.69;-0.61;13;8102;-1024
29649;0.26;0.30;-0.69;-0.61;9;8106;-1020
29669;0.26;0.30;-0.69;-0.61;7;8107;-1017
29688;0.26;0.30;-0.69;-0.61;13;8106;-1018
29714;0.26;0.30;-0.69;-0.61;10;8105;-1014
29732;0.26;0.30;-0.69;-0.61;7;8105;-1015
29751;0.26;0.30;-0.69;-0.61;6;8108;-1009
29771;0.26;0.30;-0.69;-0.61;4;8106;-1011
29800;0.26;0.30;-0.69;-0.61;12;8106;-1006
29818;0.26;0.30;-0.69;-0.61;11;8103;-1011
29837;0.26;0.30;-0.69;-0.61;14;8106;-1014
29858;0.26;0.30;-0.69;-0.61;13;8106;-1014
29879;0.26;0.30;-0.69;-0.61;13;8106;-1017
29897;0.26;0.30;-0.69;-0.61;18;8102;-1018
29916;0.26;0.30;-0.69;-0.61;13;8102;-1017
29937;0.26;0.30;-0.69;-0.61;11;8104;-1016
29961;0.26;0.30;-0.69;-0.61;8;8100;-1018
29979;0.26;0.30;-0.69;-0.61;9;8103;-1024
29999;0.26;0.30;-0.69;-0.61;11;8102;-1023
30020;0.26;0.30;-0.69;-0.61;9;8105;-1027
30039;0.26;0.30;-0.69;-0.61;7;8099;-1027
30058;0.26;0.30;-0.69;-0.61;8;8102;-1026
30078;0.26;0.30;-0.69;-0.61;8;8102;-1020
30099;0.26;0.30;-0.69;-0.61;7;8099;-1018
30119;0.26;0.30;-0.69;-0.61;7;8098;-1017
30138;0.26;0.30;-0.69;-0.61;8;8102;-1015
30157;0.26;0.30;-0.69;-0.61;8;8103;-1014
30179;0.26;0.30;-0.69;-0.61;9;8101;-1014
30198;0.26;0.30;-0.69;-0.61;17;8103;-1023
30215;0.26;0.30;-0.69;-0.61;17;8102;-1028
30234;0.26;0.30;-0.69;-0.61;15;8102;-1028
30255;0.26;0.30;-0.69;-0.61;16;8104;-1028
30275;0.26;0.30;-0.69;-0.61;19;8107;-1029
30300;0.26;0.30;-0.69;-0.61;15;8106;-1024
30319;0.26;0.30;-0.69;-0.61;15;8106;-1024
30340;0.26;0.30;-0.69;-0.61;16;8101;-1028
30360;0.26;0.30;-0.69;-0.61;17;8102;-1033
30378;0.26;0.30;-0.69;-0.61;17;8103;-1032
30399;0.26;0.30;-0.69;-0.61;20;8102;-1030
30419;0.26;0.30;-0.69;-0.61;19;8101;-1029
30442;0.26;0.30;-0.69;-0.61;18;8098;-1024
30461;0.26;0.30;-0.69;-0.61;12;8099;-1021
30482;0.26;0.30;-0.69;-0.61;6;8101;-1019
30501;0.26;0.30;-0.69;-0.61;12;8102;-1014
30521;0.26;0.30;-0.69;-0.61;13;8105;-1016
30541;0.26;0.30;-0.69;-0.61;12;8105;-1013
30561;0.26;0.30;-0.69;-0.61;11;8108;-1021
30580;0.26;0.30;-0.69;-0.61;9;8109;-1022
30601;0.26;0.30;-0.69;-0.61;8;8106;-1025
30620;0.26;0.30;-0.69;-0.61;6;8106;-1011
30639;0.26;0.30;-0.69;-0.61;10;8106;-1015
30660;0.26;0.30;-0.69;-0.61;16;8105;-1017
30684;0.26;0.30;-0.69;-0.61;15;8105;-1014
30703;0.26;0.30;-0.69;-0.61;15;8109;-1017
30721;0.26;0.30;-0.69;-0.61;16;8113;-1014
30742;0.26;0.30;-0.69;-0.61;12;8114;-1009
30762;0.26;0.30;-0.69;-0.61;11;8111;-1008
30789;0.26;0.30;-0.69;-0.61;11;8107;-1024
30807;0.26;0.30;-0.69;-0.61;11;8107;-1017
30827;0.26;0.30;-0.69;-0.61;10;8102;-1013
30848;0.26;0.30;-0.69;-0.61;11;8101;-1013
30868;0.26;0.30;-0.69;-0.61;10;8103;-1016
30886;0.26;0.30;-0.69;-0.61;12;8105;-1016
30907;0.26;0.30;-0.69;-0.61;9;8103;-1011
30931;0.26;0.30;-0.69;-0.61;6;8099;-1014
30950;0.26;0.30;-0.69;-0.61;5;8101;-1016
30968;0.26;0.30;-0.69;-0.61;8;8100;-1020
30990;0.26;0.30;-0.69;-0.61;7;8103;-1017
31010;0.26;0.30;-0.69;-0.61;3;8102;-1017
31029;0.26;0.30;-0.69;-0.61;3;8102;-1019
31047;0.26;0.30;-0.69;-0.61;4;8103;-1022
31069;0.26;0.30;-0.69;-0.61;6;8103;-1023
31089;0.26;0.30;-0.69;-0.61;5;8102;-1025
31107;0.26;0.30;-0.69;-0.61;3;8102;-1023
31126;0.26;0.30;-0.69;-0.61;5;8104;-1029
31147;0.26;0.30;-0.69;-0.61;3;8100;-1028
31168;0.26;0.30;-0.69;-0.61;2;8101;-1029
31189;0.26;0.30;-0.69;-0.61;7;8102;-1027
31210;0.26;0.30;-0.69;-0.61;7;8102;-1019
31230;0.26;0.30;-0.69;-0.61;2;8099;-1018
31250;0.26;0.30;-0.69;-0.61;5;8096;-1022
31279;0.26;0.30;-0.69;-0.61;5;8100;-1025
31299;0.26;0.30;-0.69;-0.61;4;8101;-1014
31320;0.26;0.30;-0.69;-0.61;6;8100;-1010
31340;0.26;0.30;-0.69;-0.61;14;8099;-1012
31359;0.26;0.30;-0.69;-0.61;10;8102;-1016
31381;0.26;0.30;-0.69;-0.61;9;8105;-1022
31406;0.26;0.30;-0.69;-0.61;8;8108;-1020
31425;0.26;0.30;-0.69;-0.61;5;8109;-1018
31447;0.26;0.30;-0.69;-0.61;5;8105;-1021
31467;0.26;0.30;-0.69;-0.61;10;8103;-1017
31486;0.26;0.30;-0.69;-0.61;11;8104;-1019
31506;0.26;0.30;-0.69;-0.61;9;8107;-1011
31526;0.26;0.30;-0.69;-0.61;10;8107;-1013
31546;0.26;0.30;-0.69;-0.61;14;8108;-1015
31566;0.26;0.30;-0.69;-0.61;13;8108;-1019
31586;0.26;0.30;-0.69;-0.61;11;8105;-1023
31605;0.26;0.30;-0.69;-0.61;14;8105;-1023
31626;0.26;0.30;-0.69;-0.61;12;8103;-1024
31645;0.26;0.30;-0.69;-0.61;14;8103;-1024
31665;0.26;0.30;-0.69;-0.61;13;8104;-1022
31689;0.26;0.30;-0.69;-0.61;8;8104;-1018
31708;0.26;0.30;-0.69;-0.61;6;8105;-1012
31727;0.26;0.30;-0.69;-0.61;8;8105;-1011
31759;0.26;0.30;-0.69;-0.61;14;8108;-1030
31778;0.26;0.30;-0.69;-0.61;15;8105;-1023
31797;0.26;0.30;-0.69;-0.61;13;8105;-1020
31817;0.26;0.30;-0.69;-0.61;8;8105;-1016
31839;0.26;0.30;-0.69;-0.61;8;8104;-1015
31858;0.26;0.30;-0.69;-0.61;7;8104;-1011
31878;0.26;0.30;-0.69;-0.61;9;8101;-1010
31899;0.26;0.30;-0.69;-0.61;9;8098;-1016
31922;0.26;0.30;-0.69;-0.61;10;8098;-1016
31944;0.26;0.30;-0.69;-0.61;11;8103;-1020
31963;0.26;0.30;-0.69;-0.61;12;8103;-1023
31982;0.26;0.30;-0.69;-0.61;10;8102;-1022
32003;0.26;0.30;-0.69;-0.61;12;8099;-1019
32024;0.26;0.30;-0.69;-0.61;12;8099;-1020
32042;0.26;0.30;-0.69;-0.61;12;8098;-1014
32062;0.26;0.30;-0.69;-0.61;8;8101;-1022
32083;0.26;0.30;-0.69;-0.61;9;8100;-1024
32104;0.26;0.30;-0.69;-0.61;5;8097;-1021
32122;0.26;0.30;-0.69;-0.61;9;8101;-1028
32142;0.26;0.30;-0.69;-0.61;14;8104;-1028
32163;0.26;0.30;-0.69;-0.61;14;8098;-1020
32186;0.26;0.30;-0.69;-0.61;16;8096;-1026
32204;0.26;0.30;-0.69;-0.61;15;8099;-1027
32226;0.26;0.30;-0.69;-0.61;12;8100;-1029
33258;0.26;0.30;-0.69;-0.61;10;8109;-1021
33276;0.26;0.30;-0.69;-0.61;8;8110;-1019
33295;0.26;0.30;-0.69;-0.61;8;8105;-1014
33317;0.26;0.30;-0.69;-0.61;10;8101;-1017
33338;0.26;0.30;-0.69;-0.61;10;8104;-1016
33356;0.26;0.30;-0.69;-0.61;5;8107;-1019
33375;0.26;0.30;-0.69;-0.61;4;8103;-1015
33397;0.26;0.30;-0.69;-0.61;10;8103;-1017
33418;0.26;0.30;-0.69;-0.61;11;8100;-1017
33439;0.26;0.30;-0.69;-0.61;8;8103;-1019
33460;0.26;0.30;-0.69;-0.61;9;8100;-1024
33480;0.26;0.30;-0.69;-0.61;11;8101;-1017
33501;0.26;0.30;-0.69;-0.61;9;8103;-1020
33519;0.26;0.30;-0.69;-0.61;11;8105;-1024
33538;0.26;0.30;-0.69;-0.61;12;8103;-1022
33560;0.26;0.30;-0.69;-0.61;11;8105;-1028
33579;0.26;0.30;-0.69;-0.61;16;8103;-1026
33599;0.26;0.30;-0.69;-0.61;14;8102;-1026
33618;0.26;0.30;-0.69;-0.61;15;8100;-1020
33640;0.26;0.30;-0.69;-0.61;13;8101;-1022
33659;0.26;0.30;-0.69;-0.61;15;8102;-1021
33683;0.26;0.30;-0.69;-0.61;12;8101;-1020
33702;0.26;0.30;-0.69;-0.61;11;8100;-1016
33723;0.26;0.30;-0.69;-0.61;11;8100;-1009
33747;0.26;0.30;-0.69;-0.61;10;8106;-997
33768;0.26;0.30;-0.69;-0.61;13;8106;-1001
33787;0.26;0.30;-0.69;-0.61;10;8104;-1005
33808;0.26;0.30;-0.69;-0.61;7;8103;-1012
33827;0.26;0.30;-0.69;-0.61;8;8100;-1016
33848;0.26;0.30;-0.69;-0.61;10;8102;-1020
33867;0.26;0.30;-0.69;-0.61;13;8105;-1020
33888;0.26;0.30;-0.69;-0.61;13;8109;-1014
33907;0.26;0.30;-0.69;-0.61;10;8104;-1011
33932;0.26;0.30;-0.69;-0.61;10;8105;-1010
33950;0.26;0.30;-0.69;-0.61;11;8106;-1013
33971;0.26;0.30;-0.69;-0.61;11;8102;-1009
33991;0.26;0.30;-0.69;-0.61;7;8100;-1008
34012;0.26;0.30;-0.69;-0.61;5;8100;-1006
34030;0.26;0.30;-0.69;-0.61;8;8100;-1008
34049;0.26;0.30;-0.69;-0.61;9;8098;-1012
34071;0.26;0.30;-0.69;-0.61;8;8102;-1013
34090;0.26;0.30;-0.69;-0.61;2;8102;-1019
34109;0.26;0.30;-0.69;-0.61;-1;8102;-1015
34129;0.26;0.30;-0.69;-0.61;2;8097;-1012
34151;0.26;0.30;-0.69;-0.61;5;8099;-1010
34173;0.26;0.30;-0.69;-0.61;10;8097;-1008
34192;0.26;0.30;-0.69;-0.61;7;8096;-1008
34213;0.26;0.30;-0.69;-0.61;11;8095;-1008
34238;0.26;0.30;-0.69;-0.61;9;8103;-1020
34256;0.26;0.30;-0.69;-0.61;12;8104;-1014
34275;0.26;0.30;-0.69;-0.61;12;8104;-1007
34296;0.26;0.30;-0.69;-0.61;11;8106;-1013
34318;0.26;0.30;-0.69;-0.61;11;8109;-1008
34336;0.26;0.30;-0.69;-0.61;13;8107;-1008
34355;0.26;0.30;-0.69;-0.61;17;8106;-1009
34376;0.26;0.30;-0.69;-0.61;20;8107;-1017
34398;0.26;0.30;-0.69;-0.61;15;8108;-1024
34418;0.26;0.30;-0.69;-0.61;14;8107;-1029
34439;0.26;0.30;-0.69;-0.61;12;8108;-1028
34460;0.26;0.30;-0.69;-0.61;6;8108;-1024
34479;0.26;0.30;-0.69;-0.61;6;8106;-1017
34498;0.26;0.30;-0.69;-0.61;4;8107;-1020
34518;0.26;0.30;-0.69;-0.61;3;8108;-1022
34539;0.26;0.30;-0.69;-0.61;8;8110;-1018
34558;0.26;0.30;-0.69;-0.61;11;8109;-1010
34578;0.26;0.30;-0.69;-0.61;10;8104;-1009
34597;0.26;0.30;-0.69;-0.61;15;8104;-1009
34619;0.26;0.30;-0.69;-0.61;14;8103;-1008
34638;0.26;0.30;-0.69;-0.61;8;8103;-1013
34661;0.26;0.30;-0.69;-0.61;12;8104;-1016
34681;0.26;0.30;-0.69;-0.61;12;8104;-1023
34701;0.26;0.30;-0.69;-0.61;13;8105;-1020
34727;0.26;0.30;-0.69;-0.61;9;8111;-1022
34748;0.26;0.30;-0.69;-0.61;8;8110;-1018
34766;0.26;0.30;-0.69;-0.61;9;8109;-1017
34786;0.26;0.30;-0.69;-0.61;12;8107;-1009
34807;0.26;0.30;-0.69;-0.61;8;8106;-1007
34828;0.26;0.30;-0.69;-0.61;13;8104;-1012
34848;0.26;0.30;-0.69;-0.61;12;8103;-1009
34874;0.26;0.30;-0.69;-0.61;11;8106;-1008
34894;0.26;0.30;-0.69;-0.61;14;8106;-1007
34916;0.26;0.30;-0.69;-0.61;15;8108;-1001
34935;0.26;0.30;-0.69;-0.61;13;8108;-1003
34956;0.26;0.30;-0.69;-0.61;13;8109;-1003
34977;0.26;0.30;-0.69;-0.61;12;8107;-1002
34996;0.26;0.30;-0.69;-0.61;12;8106;-1012
35014;0.26;0.30;-0.69;-0.61;10;8100;-1007
35036;0.26;0.30;-0.69;-0.61;14;8102;-1004
35056;0.26;0.30;-0.69;-0.61;13;8104;-1006
35074;0.26;0.30;-0.69;-0.61;11;8099;-1009
35094;0.26;0.30;-0.69;-0.61;11;8100;-1010
35114;0.26;0.30;-0.69;-0.61;12;8099;-1011
35136;0.26;0.30;-0.69;-0.61;9;8100;-1008
35157;0.26;0.30;-0.69;-0.61;8;8101;-1012
35177;0.26;0.30;-0.69;-0.61;8;8104;-1010
35208;0.26;0.30;-0.69;-0.61;9;8099;-1001
35228;0.26;0.30;-0.69;-0.61;14;8096;-1004
35249;0.26;0.30;-0.69;-0.61;10;8101;-1008
35270;0.26;0.30;-0.69;-0.61;3;8102;-1014
35289;0.26;0.30;-0.69;-0.61;2;8103;-1010
35309;0.26;0.30;-0.69;-0.61;8;8104;-1010
35329;0.26;0.30;-0.69;-0.61;4;8105;-1019
35349;0.26;0.30;-0.69;-0.61;11;8105;-1015
35369;0.26;0.30;-0.69;-0.61;6;8104;-1011
35389;0.26;0.30;-0.69;-0.61;8;8106;-1015
35412;0.26;0.30;-0.69;-0.61;11;8098;-1020
35431;0.26;0.30;-0.69;-0.61;12;8099;-1022
35451;0.26;0.30;-0.69;-0.61;15;8099;-1018
35473;0.26;0.30;-0.69;-0.61;14;8101;-1016
35492;0.26;0.30;-0.69;-0.61;10;8100;-1023
35511;0.26;0.30;-0.69;-0.61;7;8101;-1021
35530;0.26;0.30;-0.69;-0.61;9;8105;-1017
35552;0.26;0.30;-0.69;-0.61;9;8106;-1020
35571;0.26;0.30;-0.69;-0.61;11;8104;-1017
35590;0.26;0.30;-0.69;-0.61;14;8107;-1018
35610;0.26;0.30;-0.69;-0.61;16;8103;-1017
35631;0.26;0.30;-0.69;-0.61;13;8099;-1019
35654;0.26;0.30;-0.69;-0.61;6;8102;-1019
35672;0.26;0.30;-0.69;-0.61;6;8104;-1020
35697;0.26;0.30;-0.69;-0.61;9;8103;-1004
35718;0.26;0.30;-0.69;-0.61;10;8103;-1010
35736;0.26;0.30;-0.69;-0.61;9;8102;-1005
35754;0.26;0.30;-0.69;-0.61;13;8100;-1003
35776;0.26;0.30;-0.69;-0.61;6;8103;-1004
35797;0.26;0.30;-0.69;-0.61;5;8099;-1005
35816;0.26;0.30;-0.69;-0.61;12;8098;-1006
35834;0.26;0.30;-0.69;-0.61;15;8104;-1012
35856;0.26;0.30;-0.69;-0.61;17;8105;-1018
35876;0.26;0.30;-0.69;-0.61;17;8107;-1019
35898;0.26;0.30;-0.69;-0.61;14;8107;-1011
35917;0.26;0.30;-0.69;-0.61;17;8105;-1018
35939;0.26;0.29;-0.69;-0.61;16;8107;-1021
35958;0.26;0.29;-0.69;-0.61;16;8103;-1022
35977;0.26;0.29;-0.69;-0.61;9;8102;-1015
35997;0.26;0.29;-0.69;-0.61;10;8107;-1019
36019;0.26;0.29;-0.69;-0.61;11;8106;-1017
36038;0.26;0.29;-0.69;-0.61;8;8105;-1022
36056;0.26;0.29;-0.69;-0.61;6;8107;-1024
36076;0.26;0.29;-0.69;-0.61;7;8105;-1024
36097;0.26;0.29;-0.69;-0.61;5;8104;-1019
36117;0.26;0.29;-0.69;-0.61;12;8105;-1019
36139;0.26;0.29;-0.69;-0.61;15;8102;-1024
36160;0.26;0.29;-0.69;-0.61;13;8101;-1030
36187;0.26;0.29;-0.69;-0.61;14;8114;-1015
36206;0.26;0.29;-0.69;-0.61;15;8114;-1003
36226;0.26;0.29;-0.69;-0.61;14;8106;-1004
36246;0.26;0.29;-0.69;-0.61;17;8104;-1007
36266;0.26;0.29;-0.69;-0.61;17;8101;-1003
36286;0.26;0.29;-0.69;-0.61;18;8105;-1011
36306;0.26;0.29;-0.69;-0.61;15;8102;-1018
36326;0.26;0.29;-0.69;-0.61;15;8105;-1018
36345;0.26;0.29;-0.69;-0.61;12;8107;-1014
36366;0.26;0.29;-0.69;-0.61;15;8105;-1013
36389;0.26;0.29;-0.69;-0.61;12;8099;-1011
36408;0.26;0.29;-0.69;-0.61;15;8099;-1013
37436;0.26;0.30;-0.69;-0.61;12;8113;-1020
37457;0.26;0.30;-0.69;-0.61;8;8111;-1018
37477;0.26;0.30;-0.69;-0.61;9;8110;-1020
37495;0.26;0.30;-0.69;-0.61;13;8108;-1018
37516;0.26;0.30;-0.69;-0.61;12;8104;-1017
37536;0.26;0.30;-0.69;-0.61;11;8099;-1015
37557;0.26;0.30;-0.69;-0.61;14;8099;-1017
37575;0.26;0.30;-0.69;-0.61;13;8101;-1018
37595;0.26;0.30;-0.69;-0.61;9;8101;-1014
37616;0.26;0.30;-0.69;-0.61;9;8102;-1017
37639;0.26;0.30;-0.69;-0.61;7;8103;-1014
37657;0.26;0.30;-0.69;-0.61;10;8104;-1013
37686;0.26;0.30;-0.69;-0.61;5;8104;-1023
37707;0.26;0.30;-0.69;-0.61;4;8099;-1022
37726;0.26;0.30;-0.69;-0.61;9;8099;-1024
37744;0.26;0.30;-0.69;-0.61;9;8100;-1023
37766;0.26;0.30;-0.69;-0.61;10;8102;-1016
37786;0.26;0.30;-0.69;-0.61;8;8101;-1017
37805;0.26;0.30;-0.69;-0.61;7;8103;-1018
37824;0.26;0.30;-0.69;-0.61;11;8103;-1011
37845;0.26;0.30;-0.69;-0.61;9;8101;-1014
37866;0.26;0.30;-0.69;-0.61;11;8105;-1017
37887;0.26;0.30;-0.69;-0.61;7;8103;-1017
37908;0.26;0.30;-0.69;-0.61;3;8104;-1014
37928;0.26;0.30;-0.69;-0.61;3;8105;-1014
37949;0.26;0.30;-0.69;-0.61;10;8106;-1009
37967;0.26;0.30;-0.69;-0.61;15;8105;-1012
37987;0.26;0.30;-0.69;-0.61;16;8110;-1013
38008;0.26;0.30;-0.69;-0.61;9;8109;-1008
38028;0.26;0.30;-0.69;-0.61;5;8113;-1010
38047;0.26;0.30;-0.69;-0.61;3;8112;-1011
38067;0.26;0.30;-0.69;-0.61;5;8114;-1016
38088;0.26;0.30;-0.69;-0.61;8;8113;-1014
38108;0.26;0.30;-0.69;-0.61;12;8107;-1011
38131;0.26;0.30;-0.69;-0.61;6;8101;-1011
38151;0.26;0.30;-0.69;-0.61;4;8102;-1009
38176;0.26;0.30;-0.69;-0.61;11;8103;-1012
38196;0.26;0.30;-0.69;-0.61;15;8102;-1015
38216;0.26;0.30;-0.69;-0.61;15;8097;-1015
38236;0.26;0.30;-0.69;-0.61;12;8105;-1014
38256;0.26;0.30;-0.69;-0.61;12;8103;-1018
38275;0.26;0.30;-0.69;-0.61;9;8106;-1019
38297;0.26;0.30;-0.69;-0.61;7;8103;-1012
38317;0.26;0.30;-0.69;-0.61;4;8103;-1008
38342;0.26;0.30;-0.69;-0.61;2;8104;-1009
38360;0.26;0.30;-0.69;-0.61;3;8103;-1007
38385;0.26;0.30;-0.69;-0.61;5;8106;-1001
38403;0.26;0.30;-0.69;-0.61;5;8104;-1002
38423;0.26;0.30;-0.69;-0.61;4;8104;-1005
38444;0.26;0.30;-0.69;-0.61;7;8108;-1008
38465;0.26;0.30;-0.69;-0.61;6;8107;-1007
38483;0.26;0.30;-0.69;-0.61;5;8108;-1008
38503;0.26;0.30;-0.69;-0.61;6;8105;-1009
38524;0.26;0.30;-0.69;-0.61;10;8106;-1008
38544;0.26;0.30;-0.69;-0.61;15;8108;-1016
38564;0.26;0.30;-0.69;-0.61;16;8107;-1019
38586;0.26;0.30;-0.69;-0.61;19;8108;-1018
38608;0.26;0.30;-0.69;-0.61;16;8106;-1016
38630;0.26;0.30;-0.69;-0.61;14;8098;-1017
38655;0.26;0.30;-0.69;-0.61;12;8103;-1013
38677;0.26;0.30;-0.69;-0.61;11;8105;-1014
38696;0.26;0.30;-0.69;-0.61;11;8106;-1011
38715;0.26;0.30;-0.69;-0.61;7;8105;-1008
38735;0.26;0.30;-0.69;-0.61;11;8107;-1011
38757;0.26;0.30;-0.69;-0.61;11;8108;-1015
38776;0.26;0.30;-0.69;-0.61;12;8106;-1011
38795;0.26;0.30;-0.69;-0.61;13;8108;-1011
38815;0.26;0.30;-0.69;-0.61;13;8109;-1012
38837;0.26;0.30;-0.69;-0.61;13;8111;-1007
38856;0.26;0.30;-0.69;-0.61;13;8112;-1002
38879;0.26;0.30;-0.69;-0.61;11;8112;-999
38899;0.26;0.30;-0.69;-0.61;8;8114;-1005
38919;0.26;0.30;-0.69;-0.61;6;8111;-1004
38939;0.26;0.30;-0.69;-0.61;7;8103;-1008
38958;0.26;0.30;-0.69;-0.61;8;8100;-1003
38979;0.26;0.30;-0.69;-0.61;11;8099;-1003
38998;0.26;0.30;-0.69;-0.61;17;8100;-1004
39018;0.26;0.30;-0.69;-0.61;17;8102;-1008
39038;0.26;0.30;-0.69;-0.61;14;8100;-1013
39058;0.26;0.30;-0.69;-0.61;12;8100;-1015
39078;0.26;0.30;-0.69;-0.61;13;8103;-1012
39098;0.26;0.30;-0.69;-0.61;11;8103;-1011
39122;0.26;0.30;-0.69;-0.61;8;8107;-1019
39146;0.26;0.30;-0.69;-0.61;8;8102;-1026
39165;0.26;0.30;-0.69;-0.61;8;8103;-1024
39187;0.26;0.30;-0.69;-0.61;10;8101;-1023
39206;0.26;0.30;-0.69;-0.61;13;8101;-1023
39226;0.26;0.30;-0.69;-0.61;8;8100;-1029
39245;0.26;0.30;-0.69;-0.61;8;8103;-1030
39267;0.26;0.30;-0.69;-0.61;9;8101;-1033
39286;0.26;0.30;-0.69;-0.61;8;8095;-1030
39306;0.26;0.30;-0.69;-0.61;10;8097;-1021
39325;0.26;0.30;-0.69;-0.61;14;8097;-1012
39347;0.26;0.30;-0.69;-0.61;10;8098;-1011
39369;0.26;0.30;-0.69;-0.61;7;8100;-1016
39388;0.26;0.30;-0.69;-0.61;7;8100;-1013
39409;0.26;0.30;-0.69;-0.61;10;8097;-1009
39431;0.26;0.30;-0.69;-0.61;10;8098;-1009
39449;0.26;0.30;-0.69;-0.61;7;8098;-1006
39467;0.26;0.30;-0.69;-0.61;8;8102;-1009
39489;0.26;0.30;-0.69;-0.61;9;8105;-1006
39509;0.26;0.30;-0.69;-0.61;8;8104;-1009
39528;0.26;0.30;-0.69;-0.61;8;8104;-1018
39547;0.26;0.30;-0.69;-0.61;7;8104;-1017
39569;0.26;0.30;-0.69;-0.61;7;8102;-1016
39589;0.26;0.30;-0.69;-0.61;4;8103;-1012
39611;0.26;0.30;-0.69;-0.61;3;8102;-1011
39635;0.26;0.30;-0.69;-0.61;11;8107;-1002
39657;0.26;0.30;-0.69;-0.61;10;8109;-1002
39676;0.26;0.30;-0.69;-0.61;9;8113;-1012
39695;0.26;0.30;-0.69;-0.61;11;8112;-1011
39714;0.26;0.30;-0.69;-0.61;11;8111;-1015
39735;0.26;0.30;-0.69;-0.61;13;8106;-1013
39754;0.26;0.30;-0.69;-0.61;17;8104;-1007
39774;0.26;0.30;-0.69;-0.61;13;8107;-1009
39794;0.26;0.30;-0.69;-0.61;15;8105;-1014
39814;0.26;0.30;-0.69;-0.61;14;8107;-1012
39833;0.26;0.30;-0.69;-0.61;12;8107;-1011
39858;0.26;0.30;-0.69;-0.61;8;8107;-1009
39876;0.26;0.30;-0.69;-0.61;9;8107;-1006
39895;0.26;0.30;-0.69;-0.61;9;8113;-1007
39917;0.26;0.30;-0.69;-0.61;13;8111;-1012
39936;0.26;0.30;-0.69;-0.61;15;8106;-1017
39955;0.26;0.30;-0.69;-0.61;12;8105;-1019
39975;0.26;0.30;-0.69;-0.61;8;8105;-1018
39996;0.26;0.30;-0.69;-0.61;9;8112;-1017
40015;0.26;0.30;-0.69;-0.61;4;8115;-1020
40035;0.26;0.30;-0.69;-0.61;6;8114;-1017
40054;0.26;0.30;-0.69;-0.61;6;8112;-1023
40076;0.26;0.30;-0.69;-0.61;7;8111;-1022
40098;0.26;0.30;-0.69;-0.61;13;8110;-1020
40125;0.26;0.30;-0.69;-0.61;0;8100;-1016
40146;0.26;0.30;-0.69;-0.61;4;8101;-1013
40167;0.26;0.30;-0.69;-0.61;9;8102;-1023
40185;0.26;0.30;-0.69;-0.61;3;8103;-1026
40204;0.26;0.30;-0.69;-0.61;-2;8103;-1025
40225;0.26;0.30;-0.69;-0.61;1;8101;-1024
40247;0.26;0.30;-0.69;-0.61;4;8101;-1031
40265;0.26;0.30;-0.69;-0.61;9;8100;-1032
40284;0.26;0.30;-0.69;-0.61;7;8103;-1025
40305;0.26;0.30;-0.69;-0.61;2;8103;-1019
40326;0.26;0.30;-0.69;-0.61;4;8099;-1009
40347;0.26;0.30;-0.69;-0.61;7;8097;-1010
40366;0.26;0.30;-0.69;-0.61;8;8100;-1017
40388;0.26;0.30;-0.69;-0.61;11;8104;-1019
40407;0.26;0.30;-0.69;-0.61;11;8108;-1022
40426;0.26;0.30;-0.69;-0.61;11;8105;-1014
40446;0.26;0.30;-0.69;-0.61;8;8102;-1012
40467;0.26;0.30;-0.69;-0.61;10;8101;-1010
40487;0.26;0.30;-0.69;-0.61;9;8105;-1009
40506;0.26;0.30;-0.69;-0.61;11;8106;-1011
40525;0.26;0.30;-0.69;-0.61;12;8108;-1014
40547;0.26;0.30;-0.69;-0.61;11;8106;-1012
40566;0.26;0.30;-0.69;-0.61;11;8103;-1016
40605;0.26;0.30;-0.69;-0.61;15;8094;-1015
41634;0.26;0.30;-0.69;-0.61;4;8101;-1011
41653;0.26;0.30;-0.69;-0.61;4;8101;-1017
41671;0.26;0.30;-0.69;-0.61;10;8100;-1018
41693;0.26;0.30;-0.69;-0.61;13;8097;-1016
41713;0.26;0.30;-0.69;-0.61;17;8098;-1009
41738;0.26;0.30;-0.69;-0.61;15;8096;-1005
41756;0.26;0.30;-0.69;-0.61;17;8102;-1011
41777;0.26;0.30;-0.69;-0.61;13;8103;-1015
41796;0.26;0.30;-0.69;-0.61;15;8101;-1012
41816;0.26;0.30;-0.69;-0.61;14;8103;-1006
41836;0.26;0.30;-0.69;-0.61;17;8102;-1008
41859;0.26;0.30;-0.69;-0.61;13;8105;-1016
41880;0.26;0.30;-0.69;-0.61;10;8109;-1020
41900;0.26;0.30;-0.69;-0.61;11;8111;-1021
41924;0.26;0.30;-0.69;-0.61;9;8108;-1021
41942;0.26;0.30;-0.69;-0.61;9;8104;-1027
41963;0.26;0.30;-0.69;-0.61;13;8105;-1030
41982;0.26;0.30;-0.69;-0.61;12;8104;-1028
42002;0.26;0.30;-0.69;-0.61;10;8100;-1028
42022;0.26;0.30;-0.69;-0.61;7;8099;-1026
42042;0.26;0.30;-0.69;-0.61;8;8102;-1021
42062;0.26;0.30;-0.69;-0.61;7;8103;-1024
42082;0.26;0.30;-0.69;-0.61;9;8101;-1019
42114;0.26;0.30;-0.69;-0.61;4;8097;-1010
42133;0.26;0.30;-0.69;-0.61;4;8102;-1009
42152;0.26;0.30;-0.69;-0.61;5;8103;-1009
42174;0.26;0.30;-0.69;-0.61;3;8098;-1009
42193;0.26;0.30;-0.69;-0.61;6;8103;-1007
42212;0.26;0.30;-0.69;-0.61;9;8104;-1009
42232;0.26;0.30;-0.69;-0.61;7;8102;-1004
42254;0.26;0.30;-0.69;-0.61;11;8100;-1002
42273;0.26;0.30;-0.69;-0.61;13;8103;-1001
42292;0.26;0.30;-0.69;-0.61;9;8105;-1006
42312;0.26;0.30;-0.69;-0.61;10;8104;-1007
42333;0.26;0.30;-0.69;-0.61;11;8102;-1013
42353;0.26;0.30;-0.69;-0.61;10;8105;-1012
42374;0.26;0.30;-0.69;-0.61;9;8102;-1012
42395;0.26;0.30;-0.69;-0.61;4;8103;-1014
42417;0.26;0.30;-0.69;-0.61;6;8100;-1011
42435;0.26;0.30;-0.69;-0.61;8;8098;-1011
42453;0.26;0.30;-0.69;-0.61;10;8101;-1014
42475;0.26;0.30;-0.69;-0.61;9;8102;-1019
42495;0.26;0.30;-0.69;-0.61;6;8102;-1013
42514;0.26;0.30;-0.69;-0.61;3;8101;-1010
42532;0.26;0.30;-0.69;-0.61;5;8097;-1011
42554;0.26;0.30;-0.69;-0.61;4;8098;-1011
42574;0.26;0.30;-0.69;-0.61;8;8098;-1014
42594;0.14;0.29;0.97;-0.11;-9960;-1;0
42624;0.26;0.30;-0.69;-0.61;5;8110;-1014
42646;0.26;0.30;-0.69;-0.61;8;8109;-1009
42665;0.26;0.30;-0.69;-0.61;6;8103;-1008
42684;0.26;0.30;-0.69;-0.61;11;8105;-1000
42704;0.26;0.30;-0.69;-0.61;13;8106;-999
42726;0.26;0.30;-0.69;-0.61;11;8102;-995
42745;0.26;0.30;-0.69;-0.61;12;8102;-1000
42764;0.26;0.30;-0.69;-0.61;13;8105;-1003
42784;0.26;0.30;-0.69;-0.61;16;8104;-1003
42805;0.26;0.30;-0.69;-0.61;20;8105;-1008
42825;0.26;0.30;-0.69;-0.61;17;8101;-1013
42844;0.26;0.30;-0.69;-0.61;14;8100;-1013
42868;0.26;0.30;-0.69;-0.61;13;8101;-1016
42888;0.26;0.30;-0.69;-0.61;8;8101;-1015
42907;0.26;0.30;-0.69;-0.61;11;8100;-1018
42927;0.26;0.30;-0.69;-0.61;14;8101;-1017
42948;0.26;0.30;-0.69;-0.61;13;8106;-1016
42967;0.26;0.30;-0.69;-0.61;14;8106;-1017
42987;0.26;0.30;-0.69;-0.61;15;8107;-1023
43007;0.26;0.30;-0.69;-0.61;15;8104;-1030
43027;0.26;0.30;-0.69;-0.61;17;8102;-1029
43047;0.26;0.30;-0.69;-0.61;14;8103;-1022
43067;0.26;0.30;-0.69;-0.61;11;8101;-1018
43087;0.26;0.30;-0.69;-0.61;13;8105;-1015
43114;0.26;0.30;-0.69;-0.61;13;8103;-1019
43134;0.26;0.30;-0.69;-0.61;11;8102;-1022
43156;0.26;0.30;-0.69;-0.61;11;8099;-1024
43175;0.26;0.30;-0.69;-0.61;5;8098;-1023
43194;0.26;0.30;-0.69;-0.61;4;8105;-1026
43214;0.26;0.30;-0.69;-0.61;6;8103;-1024
43236;0.26;0.30;-0.69;-0.61;3;8105;-1022
43255;0.26;0.30;-0.69;-0.61;3;8105;-1023
43274;0.26;0.30;-0.69;-0.61;1;8106;-1019
43294;0.26;0.30;-0.69;-0.61;0;8107;-1023
43315;0.26;0.30;-0.69;-0.61;4;8108;-1018
43335;0.26;0.30;-0.69;-0.61;8;8114;-1016
43357;0.26;0.30;-0.69;-0.61;7;8113;-1023
43378;0.26;0.30;-0.69;-0.61;5;8110;-1021
43399;0.26;0.30;-0.69;-0.61;14;8107;-1016
43417;0.26;0.30;-0.69;-0.61;17;8111;-1014
43436;0.26;0.30;-0.69;-0.61;17;8112;-1009
43458;0.26;0.30;-0.69;-0.61;12;8111;-1015
43478;0.26;0.30;-0.69;-0.61;12;8106;-1027
43497;0.26;0.30;-0.69;-0.61;10;8102;-1028
43516;0.26;0.30;-0.69;-0.61;3;8099;-1021
43538;0.26;0.30;-0.69;-0.61;5;8100;-1023
43558;0.26;0.30;-0.69;-0.61;12;8098;-1024
43577;0.26;0.30;-0.69;-0.61;11;8099;-1018
43603;0.26;0.30;-0.69;-0.61;10;8106;-1034
43625;0.26;0.30;-0.69;-0.61;13;8104;-1030
43644;0.26;0.30;-0.69;-0.61;13;8099;-1028
43663;0.26;0.30;-0.69;-0.61;15;8097;-1022
43683;0.26;0.30;-0.69;-0.61;15;8096;-1019
43705;0.26;0.30;-0.69;-0.61;14;8098;-1014
43724;0.26;0.30;-0.69;-0.61;14;8098;-1012
43743;0.26;0.30;-0.69;-0.61;13;8097;-1009
43763;0.26;0.30;-0.69;-0.61;14;8098;-1008
43785;0.26;0.30;-0.69;-0.61;11;8096;-1018
43804;0.26;0.30;-0.69;-0.61;7;8096;-1020
43822;0.26;0.30;-0.69;-0.61;13;8097;-1022
43847;0.26;0.30;-0.69;-0.61;17;8099;-1026
43867;0.26;0.30;-0.69;-0.61;16;8102;-1021
43887;0.26;0.30;-0.69;-0.61;15;8100;-1015
43906;0.26;0.30;-0.69;-0.61;11;8099;-1014
43927;0.26;0.30;-0.69;-0.61;5;8099;-1014
43946;0.26;0.30;-0.69;-0.61;9;8098;-1019
43967;0.26;0.30;-0.69;-0.61;7;8103;-1022
43986;0.26;0.30;-0.69;-0.61;11;8102;-1023
44007;0.26;0.30;-0.69;-0.61;13;8102;-1023
44026;0.26;0.30;-0.69;-0.61;15;8098;-1016
44047;0.26;0.30;-0.69;-0.61;13;8098;-1018
44066;0.26;0.30;-0.69;-0.61;14;8096;-1016
44093;0.26;0.30;-0.69;-0.61;15;8100;-1016
44113;0.26;0.30;-0.69;-0.61;14;8103;-1016
44135;0.26;0.30;-0.69;-0.61;15;8103;-1016
44155;0.26;0.30;-0.69;-0.61;19;8102;-1013
44177;0.26;0.30;-0.69;-0.61;15;8101;-1010
44202;0.26;0.30;-0.69;-0.61;13;8100;-1011
44225;0.26;0.30;-0.69;-0.61;8;8099;-1007
44243;0.26;0.30;-0.69;-0.61;10;8103;-1004
44263;0.26;0.30;-0.69;-0.61;10;8106;-1011
44283;0.26;0.30;-0.69;-0.61;13;8107;-1008
44303;0.26;0.30;-0.69;-0.61;17;8104;-1009
44323;0.26;0.30;-0.69;-0.61;19;8106;-1013
44346;0.26;0.30;-0.69;-0.61;14;8108;-1017
44366;0.26;0.30;-0.69;-0.61;14;8111;-1015
44388;0.26;0.30;-0.69;-0.61;10;8109;-1012
44407;0.26;0.30;-0.69;-0.61;13;8104;-1008
44426;0.26;0.30;-0.69;-0.61;14;8106;-1010
44446;0.26;0.30;-0.69;-0.61;16;8109;-1012
44468;0.26;0.30;-0.69;-0.61;16;8106;-1009
44487;0.26;0.30;-0.69;-0.61;15;8102;-1012
44505;0.26;0.30;-0.69;-0.61;11;8101;-1012
44526;0.26;0.30;-0.69;-0.61;16;8096;-1017
44546;0.26;0.30;-0.69;-0.61;18;8098;-1014
44573;0.26;0.30;-0.69;-0.61;11;8108;-1029
44595;0.26;0.30;-0.69;-0.61;13;8110;-1027
44616;0.26;0.30;-0.69;-0.61;8;8106;-1016
44637;0.26;0.30;-0.69;-0.61;6;8107;-1016
44655;0.26;0.30;-0.69;-0.61;7;8104;-1018
44673;0.26;0.30;-0.69;-0.61;5;8102;-1015
44695;0.26;0.30;-0.69;-0.61;8;8100;-1019
44714;0.26;0.30;-0.69;-0.61;9;8104;-1018
44733;0.26;0.30;-0.69;-0.61;10;8107;-1022
44753;0.26;0.30;-0.69;-0.61;11;8110;-1018
44775;0.26;0.30;-0.69;-0.61;12;8111;-1012
44794;0.26;0.30;-0.69;-0.61;14;8106;-1011
45813;0.26;0.30;-0.69;-0.61;19;8111;-1021
45837;0.26;0.30;-0.69;-0.61;19;8110;-1021
45857;0.26;0.30;-0.69;-0.61;18;8106;-1015
45877;0.26;0.30;-0.69;-0.61;19;8104;-1017
45896;0.26;0.30;-0.69;-0.61;14;8108;-1014
45917;0.26;0.30;-0.69;-0.61;20;8105;-1015
45936;0.26;0.30;-0.69;-0.61;21;8101;-1009
45955;0.26;0.30;-0.69;-0.61;22;8102;-1010
45976;0.26;0.30;-0.69;-0.61;16;8101;-1013
45995;0.26;0.30;-0.69;-0.61;13;8102;-1010
46016;0.26;0.30;-0.69;-0.61;10;8103;-1005
46035;0.26;0.30;-0.69;-0.61;11;8108;-1008
46056;0.26;0.30;-0.69;-0.61;13;8105;-1011
46082;0.26;0.30;-0.69;-0.61;17;8107;-1012
46103;0.26;0.30;-0.69;-0.61;14;8108;-1011
46123;0.26;0.30;-0.69;-0.61;17;8108;-1009
46144;0.26;0.30;-0.69;-0.61;16;8109;-1005
46162;0.26;0.30;-0.69;-0.61;10;8108;-1011
46182;0.26;0.30;-0.69;-0.61;11;8105;-1015
46203;0.26;0.30;-0.69;-0.61;8;8106;-1013
46223;0.26;0.30;-0.69;-0.61;8;8107;-1014
46241;0.26;0.30;-0.69;-0.61;6;8105;-1016
46262;0.26;0.30;-0.69;-0.61;5;8102;-1019
46283;0.26;0.30;-0.69;-0.61;5;8100;-1014
46303;0.26;0.30;-0.69;-0.61;8;8100;-1011
46324;0.26;0.30;-0.69;-0.61;8;8098;-1006
46346;0.26;0.30;-0.69;-0.61;14;8102;-1006
46366;0.26;0.30;-0.69;-0.61;13;8101;-1007
46385;0.26;0.30;-0.69;-0.61;12;8102;-1006
46403;0.26;0.30;-0.69;-0.61;7;8099;-1011
46424;0.26;0.30;-0.69;-0.61;3;8099;-1011
46446;0.26;0.30;-0.69;-0.61;5;8099;-1017
46464;0.26;0.30;-0.69;-0.61;6;8103;-1014
46483;0.26;0.30;-0.69;-0.61;10;8101;-1016
46504;0.26;0.30;-0.69;-0.61;9;8102;-1016
46525;0.26;0.30;-0.69;-0.61;3;8101;-1015
46543;0.26;0.30;-0.69;-0.61;9;8100;-1015
46573;0.26;0.30;-0.69;-0.61;12;8106;-1026
46593;0.26;0.30;-0.69;-0.61;7;8103;-1026
46613;0.26;0.30;-0.69;-0.61;3;8105;-1028
46632;0.26;0.30;-0.69;-0.61;7;8104;-1019
46652;0.26;0.30;-0.69;-0.61;7;8105;-1014
46673;0.26;0.30;-0.69;-0.61;4;8107;-1020
46693;0.26;0.30;-0.69;-0.61;4;8108;-1023
46711;0.26;0.30;-0.69;-0.61;7;8105;-1022
46732;0.26;0.30;-0.69;-0.61;10;8106;-1022
46752;0.26;0.30;-0.69;-0.61;10;8105;-1025
46773;0.26;0.30;-0.69;-0.61;15;8105;-1024
46791;0.26;0.30;-0.69;-0.61;17;8106;-1019
46815;0.26;0.30;-0.69;-0.61;12;8102;-1020
46835;0.26;0.30;-0.69;-0.61;16;8101;-1020
46855;0.26;0.30;-0.69;-0.61;13;8098;-1020
46874;0.26;0.30;-0.69;-0.61;10;8102;-1020
46894;0.26;0.30;-0.69;-0.61;5;8102;-1016
46914;0.26;0.30;-0.69;-0.61;3;8104;-1014
46933;0.26;0.30;-0.69;-0.61;5;8105;-1006
46954;0.26;0.30;-0.69;-0.61;4;8105;-1007
46973;0.26;0.30;-0.69;-0.61;7;8102;-1015
46994;0.26;0.30;-0.69;-0.61;4;8101;-1016
47013;0.26;0.30;-0.69;-0.61;2;8104;-1011
47033;0.26;0.30;-0.69;-0.61;1;8103;-1012
47062;0.26;0.30;-0.69;-0.61;12;8099;-1017
47083;0.26;0.30;-0.69;-0.61;15;8102;-1016
47103;0.26;0.30;-0.69;-0.61;15;8101;-1011
47124;0.26;0.30;-0.69;-0.61;13;8102;-1011
47142;0.26;0.30;-0.69;-0.61;11;8104;-1012
47162;0.26;0.30;-0.69;-0.61;13;8105;-1011
47183;0.26;0.30;-0.69;-0.61;11;8105;-1016
47203;0.26;0.30;-0.69;-0.61;9;8107;-1016
47221;0.26;0.30;-0.69;-0.61;8;8107;-1017
47242;0.26;0.30;-0.69;-0.61;6;8105;-1023
47263;0.26;0.30;-0.69;-0.61;5;8106;-1025
47283;0.26;0.30;-0.69;-0.61;4;8102;-1025
47304;0.26;0.30;-0.69;-0.61;4;8095;-1025
47325;0.26;0.30;-0.69;-0.61;11;8096;-1030
47346;0.26;0.30;-0.69;-0.61;11;8097;-1026
47364;0.26;0.30;-0.69;-0.61;10;8098;-1027
47383;0.26;0.30;-0.69;-0.61;7;8097;-1025
47404;0.26;0.30;-0.69;-0.61;8;8101;-1022
47425;0.26;0.30;-0.69;-0.61;11;8103;-1016
47445;0.26;0.30;-0.69;-0.61;12;8104;-1011
47465;0.26;0.30;-0.69;-0.61;14;8102;-1007
47490;0.26;0.30;-0.69;-0.61;13;8107;-1008
47510;0.26;0.30;-0.69;-0.61;11;8109;-1003
47528;0.26;0.30;-0.69;-0.61;11;8110;-1013
47562;0.26;0.30;-0.69;-0.61;12;8100;-1016
47583;0.26;0.30;-0.69;-0.61;12;8101;-1011
47603;0.26;0.30;-0.69;-0.61;12;8103;-1010
47623;0.26;0.30;-0.69;-0.61;13;8104;-1008
47644;0.26;0.30;-0.69;-0.61;13;8102;-1004
47672;0.26;0.30;-0.69;-0.61;12;8102;-1007
47690;0.26;0.30;-0.69;-0.61;10;8102;-1011
47709;0.26;0.30;-0.69;-0.61;15;8100;-1016
47729;0.26;0.30;-0.69;-0.61;10;8098;-1016
47750;0.26;0.30;-0.69;-0.61;8;8098;-1019
47770;0.26;0.30;-0.69;-0.61;8;8101;-1016
47788;0.26;0.30;-0.69;-0.61;7;8100;-1012
47812;0.26;0.30;-0.69;-0.61;11;8101;-1003
47832;0.26;0.30;-0.69;-0.61;7;8100;-1001
47852;0.26;0.30;-0.69;-0.61;6;8098;-1010
47872;0.26;0.30;-0.69;-0.61;6;8095;-1014
47892;0.26;0.30;-0.69;-0.61;8;8096;-1021
47912;0.26;0.30;-0.69;-0.61;9;8097;-1020
47932;0.26;0.30;-0.69;-0.61;5;8098;-1017
47952;0.26;0.30;-0.69;-0.61;7;8100;-1017
47972;0.26;0.30;-0.69;-0.61;4;8099;-1016
47991;0.26;0.30;-0.69;-0.61;-1;8102;-1016
48012;0.26;0.30;-0.69;-0.61;1;8103;-1014
48041;0.26;0.30;-0.69;-0.61;3;8102;-1018
48064;0.26;0.30;-0.69;-0.61;4;8098;-1016
48084;0.26;0.30;-0.69;-0.61;7;8101;-1011
48105;0.26;0.30;-0.69;-0.61;7;8102;-1013
48125;0.26;0.30;-0.69;-0.61;9;8099;-1013
48144;0.26;0.30;-0.69;-0.61;6;8096;-1011
48163;0.26;0.30;-0.69;-0.61;11;8096;-1012
48185;0.26;0.30;-0.69;-0.61;14;8101;-1014
48205;0.26;0.30;-0.69;-0.61;11;8101;-1013
48224;0.26;0.30;-0.69;-0.61;5;8098;-1004
48243;0.26;0.30;-0.69;-0.61;0;8102;-1013
48265;0.26;0.30;-0.69;-0.61;-1;8102;-1017
48284;0.26;0.30;-0.69;-0.61;3;8108;-1016
48306;0.26;0.30;-0.69;-0.61;3;8108;-1021
48327;0.26;0.30;-0.69;-0.61;6;8104;-1024
48349;0.26;0.30;-0.69;-0.61;8;8106;-1020
48367;0.26;0.30;-0.69;-0.61;5;8106;-1020
48385;0.26;0.30;-0.69;-0.61;3;8100;-1014
48407;0.26;0.30;-0.69;-0.61;2;8099;-1015
48428;0.26;0.30;-0.69;-0.61;-1;8104;-1014
48447;0.26;0.30;-0.69;-0.61;-1;8108;-1019
48465;0.26;0.30;-0.69;-0.61;1;8112;-1025
48487;0.26;0.30;-0.69;-0.61;5;8109;-1021
48507;0.26;0.30;-0.69;-0.61;6;8104;-1011
48532;0.26;0.30;-0.69;-0.61;8;8097;-1012
48554;0.26;0.30;-0.69;-0.61;10;8098;-1008
48576;0.26;0.30;-0.69;-0.61;11;8103;-1002
48596;0.26;0.30;-0.69;-0.61;12;8103;-1005
48615;0.26;0.30;-0.69;-0.61;21;8107;-1008
48634;0.26;0.30;-0.69;-0.61;19;8107;-1016
48656;0.26;0.30;-0.69;-0.61;21;8104;-1018
48675;0.26;0.30;-0.69;-0.61;20;8104;-1024
48695;0.26;0.30;-0.69;-0.61;15;8108;-1020
48714;0.26;0.30;-0.69;-0.61;13;8109;-1014
48736;0.26;0.30;-0.69;-0.61;14;8109;-1015
48755;0.26;0.30;-0.69;-0.61;13;8107;-1016
48775;0.26;0.30;-0.69;-0.61;18;8105;-1019
48798;0.26;0.30;-0.69;-0.61;21;8104;-1014
48819;0.26;0.30;-0.69;-0.61;17;8101;-1015
48838;0.26;0.30;-0.69;-0.61;15;8103;-1012
48859;0.26;0.30;-0.69;-0.61;10;8099;-1016
48878;0.26;0.30;-0.69;-0.61;5;8103;-1014
48897;0.26;0.30;-0.69;-0.61;-2;8106;-1015
48918;0.26;0.30;-0.69;-0.61;-1;8105;-1013
48937;0.26;0.30;-0.69;-0.61;-1;8107;-1013
48958;0.26;0.30;-0.69;-0.61;2;8108;-1017
48977;0.26;0.30;-0.69;-0.61;9;8103;-1023
50001;0.26;0.30;-0.69;-0.61;17;8106;-1012
50031;0.26;0.30;-0.69;-0.61;9;8101;-1007
50054;0.26;0.30;-0.69;-0.61;9;8104;-1011
50073;0.26;0.30;-0.69;-0.61;9;8108;-1010
50094;0.26;0.30;-0.69;-0.61;10;8105;-1008
50114;0.26;0.30;-0.69;-0.61;7;8104;-1009
50133;0.26;0.30;-0.69;-0.61;7;8105;-1017
50153;0.26;0.30;-0.69;-0.61;11;8103;-1013
50174;0.26;0.30;-0.69;-0.61;16;8104;-1012
50194;0.26;0.30;-0.69;-0.61;13;8107;-1010
50212;0.26;0.30;-0.69;-0.61;18;8109;-1015
50233;0.26;0.30;-0.69;-0.61;14;8109;-1020
50254;0.26;0.30;-0.69;-0.61;14;8113;-1027
50274;0.26;0.30;-0.69;-0.61;12;8113;-1020
50295;0.26;0.30;-0.69;-0.61;9;8111;-1015
50317;0.26;0.30;-0.69;-0.61;6;8112;-1016
50337;0.26;0.30;-0.69;-0.61;7;8110;-1015
50357;0.26;0.30;-0.69;-0.61;7;8112;-1014
50375;0.26;0.30;-0.69;-0.61;12;8107;-1014
50397;0.26;0.30;-0.69;-0.61;12;8107;-1014
50417;0.26;0.30;-0.69;-0.61;9;8105;-1020
50435;0.26;0.30;-0.69;-0.61;3;8107;-1024
50454;0.26;0.30;-0.69;-0.61;6;8103;-1031
50475;0.26;0.30;-0.69;-0.61;6;8102;-1032
50497;0.26;0.30;-0.69;-0.61;6;8100;-1025
50520;0.26;0.30;-0.69;-0.61;10;8105;-1014
50543;0.26;0.30;-0.69;-0.61;14;8104;-1016
50564;0.26;0.30;-0.69;-0.61;17;8105;-1015
50584;0.26;0.30;-0.69;-0.61;17;8106;-1011
50602;0.26;0.30;-0.69;-0.61;16;8106;-1015
50623;0.26;0.30;-0.69;-0.61;15;8105;-1015
50642;0.26;0.30;-0.69;-0.61;10;8103;-1010
50662;0.26;0.30;-0.69;-0.61;10;8108;-1008
50682;0.26;0.30;-0.69;-0.61;8;8107;-1005
50702;0.26;0.30;-0.69;-0.61;10;8106;-1013
50723;0.26;0.30;-0.69;-0.61;10;8103;-1016
50744;0.26;0.30;-0.69;-0.61;12;8101;-1010
50770;0.26;0.30;-0.69;-0.61;13;8100;-1016
50792;0.26;0.30;-0.69;-0.61;14;8100;-1014
50811;0.26;0.30;-0.69;-0.61;12;8101;-1014
50833;0.26;0.30;-0.69;-0.61;13;8098;-1013
50852;0.26;0.30;-0.69;-0.61;11;8098;-1016
50871;0.26;0.30;-0.69;-0.61;13;8099;-1015
50891;0.26;0.30;-0.69;-0.61;9;8105;-1017
50913;0.26;0.30;-0.69;-0.61;10;8106;-1016
50932;0.26;0.30;-0.69;-0.61;12;8108;-1013
50951;0.26;0.30;-0.69;-0.61;12;8106;-1013
50970;0.26;0.30;-0.69;-0.61;10;8103;-1012
51001;0.26;0.30;-0.69;-0.61;10;8114;-1023
51020;0.26;0.30;-0.69;-0.61;9;8112;-1023
51042;0.26;0.30;-0.69;-0.61;6;8114;-1016
51063;0.26;0.30;-0.69;-0.61;8;8109;-1010
51085;0.26;0.30;-0.69;-0.61;12;8105;-1009
51104;0.26;0.30;-0.69;-0.61;12;8105;-1004
51124;0.26;0.30;-0.69;-0.61;13;8104;-1005
51151;0.26;0.30;-0.69;-0.61;12;8105;-1009
51172;0.26;0.30;-0.69;-0.61;11;8105;-1004
51190;0.26;0.30;-0.69;-0.61;11;8104;-1004
51209;0.26;0.30;-0.69;-0.61;8;8105;-1004
51230;0.26;0.30;-0.69;-0.61;10;8104;-1006
51251;0.26;0.30;-0.69;-0.61;7;8103;-1007
51269;0.26;0.30;-0.69;-0.61;2;8103;-1009
51293;0.26;0.30;-0.69;-0.61;5;8104;-1006
51313;0.26;0.30;-0.69;-0.61;5;8105;-1011
51334;0.26;0.30;-0.69;-0.61;3;8103;-1016
51352;0.26;0.30;-0.69;-0.61;4;8107;-1014
51371;0.26;0.30;-0.69;-0.61;5;8107;-1011
51393;0.26;0.30;-0.69;-0.61;5;8112;-1011
51412;0.26;0.30;-0.69;-0.61;8;8110;-1008
51431;0.26;0.30;-0.69;-0.61;14;8109;-1009
51451;0.26;0.30;-0.69;-0.61;18;8107;-1011
51480;0.26;0.30;-0.69;-0.61;9;8103;-998
51500;0.26;0.30;-0.69;-0.61;9;8103;-1006
51519;0.26;0.30;-0.69;-0.61;10;8104;-1008
51542;0.26;0.30;-0.69;-0.61;11;8102;-1003
51563;0.26;0.30;-0.69;-0.61;6;8100;-1007
51582;0.26;0.30;-0.69;-0.61;11;8105;-1014
51603;0.26;0.30;-0.69;-0.61;14;8108;-1006
51622;0.26;0.30;-0.69;-0.61;15;8106;-998
51643;0.26;0.30;-0.69;-0.61;14;8104;-1001
51662;0.26;0.30;-0.69;-0.61;14;8109;-1009
51682;0.26;0.30;-0.69;-0.61;12;8111;-1008
51702;0.26;0.30;-0.69;-0.61;7;8103;-1013
51722;0.26;0.30;-0.69;-0.61;7;8103;-1015
51741;0.26;0.30;-0.69;-0.61;4;8105;-1014
51762;0.26;0.30;-0.69;-0.61;3;8104;-1010
51784;0.26;0.30;-0.69;-0.61;4;8104;-1017
51804;0.26;0.30;-0.69;-0.61;9;8104;-1016
51825;0.26;0.30;-0.69;-0.61;9;8107;-1021
51844;0.26;0.30;-0.69;-0.61;7;8110;-1024
51864;0.26;0.30;-0.69;-0.61;8;8111;-1018
51883;0.26;0.30;-0.69;-0.61;9;8114;-1013
51905;0.26;0.30;-0.69;-0.61;11;8116;-1016
51924;0.26;0.30;-0.69;-0.61;14;8114;-1022
51943;0.26;0.30;-0.69;-0.61;14;8111;-1020
51970;0.26;0.30;-0.69;-0.61;17;8102;-1026
51992;0.26;0.30;-0.69;-0.61;20;8104;-1028
52011;0.26;0.30;-0.69;-0.61;19;8106;-1029
52033;0.26;0.30;-0.69;-0.61;13;8103;-1027
52054;0.26;0.30;-0.69;-0.61;14;8103;-1026
52075;0.26;0.30;-0.69;-0.61;14;8107;-1026
52093;0.26;0.30;-0.69;-0.61;17;8106;-1024
52112;0.26;0.30;-0.69;-0.61;16;8107;-1019
52133;0.26;0.30;-0.69;-0.61;13;8104;-1021
52155;0.26;0.30;-0.69;-0.61;7;8100;-1017
52173;0.26;0.30;-0.69;-0.61;8;8099;-1012
52192;0.26;0.30;-0.69;-0.61;11;8097;-1014
52213;0.26;0.30;-0.69;-0.61;18;8100;-1017
52235;0.26;0.30;-0.69;-0.61;16;8104;-1013
52253;0.26;0.30;-0.69;-0.61;16;8107;-1019
52276;0.26;0.30;-0.69;-0.61;16;8112;-1021
52297;0.26;0.30;-0.69;-0.61;13;8110;-1014
52317;0.26;0.30;-0.69;-0.61;12;8106;-1012
52335;0.26;0.30;-0.69;-0.61;12;8103;-1010
52355;0.26;0.30;-0.69;-0.61;11;8104;-1014
52376;0.26;0.30;-0.69;-0.61;15;8101;-1013
52396;0.26;0.30;-0.69;-0.61;14;8098;-1019
52415;0.26;0.30;-0.69;-0.61;12;8100;-1023
52434;0.26;0.30;-0.69;-0.61;13;8100;-1016
52460;0.26;0.30;-0.69;-0.61;13;8105;-1005
52479;0.26;0.30;-0.69;-0.61;17;8106;-1009
52498;0.26;0.30;-0.69;-0.61;20;8107;-1012
52522;0.26;0.30;-0.69;-0.61;18;8104;-1008
52543;0.26;0.30;-0.69;-0.61;12;8107;-1012
52562;0.26;0.30;-0.69;-0.61;3;8108;-1013
52582;0.26;0.30;-0.69;-0.61;5;8107;-1008
52602;0.26;0.30;-0.69;-0.61;9;8109;-1008
52622;0.26;0.30;-0.69;-0.61;10;8108;-1012
52642;0.26;0.30;-0.69;-0.61;8;8105;-1015
52662;0.26;0.30;-0.69;-0.61;11;8108;-1013
52682;0.26;0.30;-0.69;-0.61;11;8109;-1008
52702;0.26;0.30;-0.69;-0.61;12;8109;-1013
52722;0.26;0.30;-0.69;-0.61;12;8112;-1015
52742;0.26;0.30;-0.69;-0.61;12;8112;-1019
52764;0.26;0.30;-0.69;-0.61;10;8107;-1012
52785;0.26;0.30;-0.69;-0.61;16;8105;-1012
52806;0.26;0.30;-0.69;-0.61;14;8105;-1014
52825;0.26;0.30;-0.69;-0.61;14;8105;-1016
52844;0.26;0.30;-0.69;-0.61;15;8106;-1020
52864;0.26;0.30;-0.69;-0.61;14;8109;-1019
52886;0.26;0.30;-0.69;-0.61;12;8109;-1020
52905;0.26;0.30;-0.69;-0.61;11;8108;-1014
52924;0.26;0.30;-0.69;-0.61;13;8108;-1019
52950;0.26;0.30;-0.69;-0.61;8;8101;-1017
52971;0.26;0.30;-0.69;-0.61;11;8102;-1006
52991;0.26;0.30;-0.69;-0.61;9;8099;-1014
53015;0.26;0.30;-0.69;-0.61;7;8106;-1012
53043;0.26;0.30;-0.69;-0.61;7;8108;-1015
53062;0.26;0.30;-0.69;-0.61;8;8108;-1016
53081;0.26;0.30;-0.69;-0.61;12;8109;-1015
53100;0.26;0.30;-0.69;-0.61;15;8106;-1013
53121;0.26;0.30;-0.69;-0.61;12;8102;-1015
53142;0.26;0.30;-0.69;-0.61;11;8101;-1016
53161;0.26;0.30;-0.69;-0.61;11;8104;-1015
53180;0.26;0.30;-0.69;-0.61;13;8103;-1013
54209;0.26;0.30;-0.69;-0.61;1;8105;-1016
54230;0.26;0.30;-0.69;-0.61;1;8105;-1020
54249;0.26;0.30;-0.69;-0.61;4;8103;-1017
54271;0.26;0.30;-0.69;-0.61;3;8102;-1012
54293;0.26;0.30;-0.69;-0.61;4;8102;-1005
54312;0.26;0.30;-0.69;-0.61;6;8096;-1005
54332;0.26;0.30;-0.69;-0.61;6;8095;-1009
54351;0.26;0.30;-0.69;-0.61;9;8095;-1011
54373;0.26;0.30;-0.69;-0.61;5;8095;-1013
54392;0.26;0.30;-0.69;-0.61;4;8098;-1011
54411;0.26;0.30;-0.69;-0.61;6;8101;-1007
54439;0.26;0.30;-0.69;-0.61;15;8098;-1025
54460;0.26;0.30;-0.69;-0.61;17;8100;-1028
54480;0.26;0.30;-0.69;-0.61;16;8106;-1029
54499;0.26;0.30;-0.69;-0.61;16;8104;-1028
54523;0.26;0.30;-0.69;-0.61;17;8104;-1029
54543;0.26;0.30;-0.69;-0.61;16;8099;-1019
54563;0.26;0.30;-0.69;-0.61;15;8102;-1012
54585;0.26;0.30;-0.69;-0.61;11;8103;-1008
54605;0.26;0.30;-0.69;-0.61;12;8104;-1011
54630;0.26;0.30;-0.69;-0.61;13;8099;-1020
54648;0.26;0.30;-0.69;-0.61;15;8099;-1022
54669;0.26;0.30;-0.69;-0.61;14;8100;-1016
54688;0.26;0.30;-0.69;-0.61;11;8101;-1015
54709;0.26;0.30;-0.69;-0.61;15;8101;-1009
54728;0.26;0.30;-0.69;-0.61;17;8106;-1008
54749;0.26;0.30;-0.69;-0.61;14;8106;-1008
54771;0.26;0.30;-0.69;-0.61;12;8106;-1004
54791;0.26;0.30;-0.69;-0.61;14;8102;-1005
54812;0.26;0.30;-0.69;-0.61;17;8102;-1004
54833;0.26;0.30;-0.69;-0.61;15;8104;-1010
54851;0.26;0.30;-0.69;-0.61;9;8107;-1014
54870;0.26;0.30;-0.69;-0.61;11;8104;-1011
54892;0.26;0.30;-0.69;-0.61;10;8100;-1013
54919;0.26;0.30;-0.69;-0.61;17;8106;-1015
54938;0.26;0.30;-0.69;-0.61;14;8105;-1015
54957;0.26;0.30;-0.69;-0.61;18;8104;-1015
54979;0.26;0.30;-0.69;-0.61;16;8101;-1024
54998;0.26;0.30;-0.69;-0.61;14;8102;-1023
55020;0.26;0.30;-0.69;-0.61;12;8105;-1028
55041;0.26;0.30;-0.69;-0.61;19;8106;-1029
55063;0.26;0.30;-0.69;-0.61;22;8106;-1025
55081;0.26;0.30;-0.69;-0.61;19;8109;-1023
55100;0.26;0.30;-0.69;-0.61;16;8106;-1018
55121;0.26;0.30;-0.69;-0.61;14;8103;-1016
55143;0.26;0.30;-0.69;-0.61;14;8105;-1014
55161;0.26;0.30;-0.69;-0.61;12;8108;-1017
55180;0.26;0.30;-0.69;-0.61;13;8109;-1016
55201;0.26;0.30;-0.69;-0.61;16;8109;-1021
55223;0.26;0.30;-0.69;-0.61;16;8107;-1025
55241;0.26;0.30;-0.69;-0.61;19;8106;-1018
55265;0.26;0.30;-0.69;-0.61;19;8107;-1016
55285;0.26;0.30;-0.69;-0.61;19;8104;-1018
55306;0.26;0.30;-0.69;-0.61;17;8104;-1017
55324;0.26;0.30;-0.69;-0.61;14;8104;-1011
55343;0.26;0.30;-0.69;-0.61;15;8104;-1015
55365;0.26;0.30;-0.69;-0.61;19;8105;-1019
55384;0.26;0.30;-0.69;-0.61;16;8104;-1016
55408;0.26;0.30;-0.69;-0.61;10;8103;-1022
55428;0.26;0.30;-0.69;-0.61;15;8099;-1022
55450;0.26;0.30;-0.69;-0.61;14;8105;-1021
55469;0.26;0.30;-0.69;-0.61;13;8106;-1022
55488;0.26;0.30;-0.69;-0.61;15;8107;-1020
55511;0.26;0.30;-0.69;-0.61;16;8104;-1018
55532;0.26;0.30;-0.69;-0.61;20;8100;-1011
55551;0.26;0.30;-0.69;-0.61;14;8102;-1011
55572;0.26;0.30;-0.69;-0.61;11;8101;-1014
55591;0.26;0.30;-0.69;-0.61;12;8100;-1021
55612;0.26;0.30;-0.69;-0.61;17;8100;-1016
55631;0.26;0.30;-0.69;-0.61;16;8103;-1014
55651;0.26;0.30;-0.69;-0.61;17;8103;-1021
55671;0.26;0.30;-0.69;-0.61;18;8102;-1024
55691;0.26;0.30;-0.69;-0.61;15;8100;-1027
55710;0.26;0.30;-0.69;-0.61;14;8099;-1021
55731;0.26;0.30;-0.69;-0.61;10;8096;-1017
55753;0.26;0.30;-0.69;-0.61;5;8097;-1016
55773;0.26;0.30;-0.69;-0.61;7;8099;-1017
55794;0.26;0.30;-0.69;-0.61;11;8104;-1008
55814;0.26;0.30;-0.69;-0.61;12;8102;-1016
55832;0.26;0.30;-0.69;-0.61;13;8105;-1012
55852;0.26;0.30;-0.69;-0.61;13;8103;-1011
55874;0.26;0.30;-0.69;-0.61;13;8104;-1012
55899;0.26;0.30;-0.69;-0.61;9;8104;-1022
55917;0.26;0.30;-0.69;-0.61;5;8102;-1016
55936;0.26;0.30;-0.69;-0.61;8;8103;-1016
55958;0.26;0.30;-0.69;-0.61;6;8105;-1017
55977;0.26;0.30;-0.69;-0.61;6;8103;-1014
55999;0.26;0.30;-0.69;-0.61;11;8105;-1012
56020;0.26;0.30;-0.69;-0.61;12;8108;-1015
56041;0.26;0.30;-0.69;-0.61;15;8109;-1015
56059;0.26;0.30;-0.69;-0.61;9;8108;-1013
56078;0.26;0.30;-0.69;-0.61;9;8107;-1016
56099;0.26;0.30;-0.69;-0.61;9;8107;-1015
56121;0.26;0.30;-0.69;-0.61;6;8108;-1013
56139;0.26;0.30;-0.69;-0.61;5;8109;-1013
56158;0.26;0.30;-0.69;-0.61;7;8107;-1017
56179;0.26;0.30;-0.69;-0.61;7;8105;-1016
56200;0.26;0.30;-0.69;-0.61;9;8102;-1015
56218;0.26;0.30;-0.69;-0.61;14;8099;-1010
56241;0.26;0.30;-0.69;-0.61;14;8099;-1010
56262;0.26;0.30;-0.69;-0.61;16;8100;-1018
56284;0.26;0.30;-0.69;-0.61;13;8101;-1024
56303;0.26;0.30;-0.69;-0.61;13;8104;-1020
56333;0.26;0.30;-0.69;-0.61;10;8105;-1015
56352;0.26;0.30;-0.69;-0.61;7;8107;-1010
56379;0.26;0.30;-0.69;-0.61;14;8105;-1012
56398;0.26;0.30;-0.69;-0.61;14;8104;-1009
56419;0.26;0.30;-0.69;-0.61;11;8102;-1008
56438;0.26;0.30;-0.69;-0.61;7;8101;-1011
56458;0.26;0.30;-0.69;-0.61;5;8105;-1007
56478;0.26;0.30;-0.69;-0.61;9;8100;-1006
56501;0.26;0.30;-0.69;-0.61;10;8102;-1006
56520;0.26;0.30;-0.69;-0.61;6;8103;-1012
56542;0.26;0.30;-0.69;-0.61;6;8106;-1009
56561;0.26;0.30;-0.69;-0.61;6;8109;-1013
56579;0.26;0.30;-0.69;-0.61;9;8105;-1018
56600;0.26;0.30;-0.69;-0.61;14;8104;-1012
56621;0.26;0.30;-0.69;-0.61;12;8106;-1011
56641;0.26;0.30;-0.69;-0.61;9;8106;-1011
56659;0.26;0.30;-0.69;-0.61;11;8107;-1016
56679;0.26;0.30;-0.69;-0.61;13;8108;-1013
56700;0.26;0.30;-0.69;-0.61;9;8105;-1008
56720;0.26;0.30;-0.69;-0.61;11;8107;-1009
56741;0.26;0.30;-0.69;-0.61;9;8106;-1010
56763;0.26;0.30;-0.69;-0.61;9;8105;-1014
56784;0.26;0.30;-0.69;-0.61;12;8103;-1018
56803;0.26;0.30;-0.69;-0.61;12;8102;-1008
56821;0.26;0.30;-0.69;-0.61;15;8097;-1016
56843;0.26;0.30;-0.69;-0.61;17;8101;-1014
56868;0.26;0.30;-0.69;-0.61;15;8102;-1003
56887;0.26;0.30;-0.69;-0.61;16;8108;-1006
56905;0.26;0.30;-0.69;-0.61;14;8108;-1009
56927;0.26;0.30;-0.69;-0.61;6;8104;-1018
56947;0.26;0.30;-0.69;-0.61;4;8104;-1022
56967;0.26;0.30;-0.69;-0.61;4;8105;-1028
56989;0.26;0.30;-0.69;-0.61;8;8107;-1023
57010;0.26;0.30;-0.69;-0.61;14;8107;-1023
57030;0.26;0.30;-0.69;-0.61;13;8109;-1018
57049;0.26;0.30;-0.69;-0.61;10;8105;-1008
57071;0.26;0.30;-0.69;-0.61;13;8101;-1004
57097;0.26;0.30;-0.69;-0.61;9;8100;-1011
57115;0.26;0.30;-0.69;-0.61;5;8100;-1014
57133;0.26;0.30;-0.69;-0.61;4;8104;-1012
57153;0.26;0.30;-0.69;-0.61;5;8104;-1012
57174;0.26;0.30;-0.69;-0.61;11;8103;-1013
57194;0.26;0.30;-0.69;-0.61;9;8106;-1010
57212;0.26;0.30;-0.69;-0.61;10;8106;-1009
57237;0.26;0.30;-0.69;-0.61;15;8105;-1014
57256;0.26;0.30;-0.69;-0.61;12;8107;-1014
57277;0.26;0.30;-0.69;-0.61;12;8105;-1019
57296;0.26;0.30;-0.69;-0.61;13;8107;-1021
57316;0.26;0.30;-0.69;-0.61;15;8108;-1025
57336;0.26;0.30;-0.69;-0.61;-1029;-19862;27792
57358;0.26;0.30;-0.69;-0.61;5;8098;-1022
57378;0.26;0.30;-0.69;-0.61;6;8096;-1021
58407;0.26;0.30;-0.69;-0.61;9;8105;-1018
58427;0.26;0.30;-0.69;-0.61;12;8102;-1013
58446;0.26;0.30;-0.69;-0.61;13;8100;-1012
58467;0.26;0.30;-0.69;-0.61;14;8096;-1016
58489;0.26;0.30;-0.69;-0.61;13;8100;-1021
58510;0.26;0.30;-0.69;-0.61;10;8101;-1020
58530;0.26;0.30;-0.69;-0.61;12;8103;-1022
58551;0.26;0.30;-0.69;-0.61;5;8102;-1021
58569;0.26;0.30;-0.69;-0.61;5;8102;-1025
58589;0.26;0.30;-0.69;-0.61;7;8104;-1020
58610;0.26;0.30;-0.69;-0.61;10;8103;-1015
58630;0.26;0.30;-0.69;-0.61;9;8106;-1013
58649;0.26;0.30;-0.69;-0.61;8;8103;-1007
58668;0.26;0.30;-0.69;-0.61;7;8104;-1004
58690;0.26;0.30;-0.69;-0.61;5;8108;-1003
58709;0.26;0.30;-0.69;-0.61;1;8107;-1007
58731;0.26;0.30;-0.69;-0.61;2;8107;-1008
58752;0.26;0.30;-0.69;-0.61;4;8111;-1006
58774;0.26;0.30;-0.69;-0.61;5;8109;-1009
58792;0.26;0.30;-0.69;-0.61;4;8108;-1011
58811;0.26;0.30;-0.69;-0.61;8;8114;-1013
58832;0.26;0.30;-0.69;-0.61;10;8110;-1012
58857;0.26;0.30;-0.69;-0.61;11;8104;-1026
58876;0.26;0.30;-0.69;-0.61;11;8103;-1023
58895;0.26;0.30;-0.69;-0.61;16;8100;-1018
58916;0.26;0.30;-0.69;-0.61;17;8100;-1015
58937;0.26;0.30;-0.69;-0.61;20;8100;-1018
58955;0.26;0.30;-0.69;-0.61;19;8103;-1015
58979;0.26;0.30;-0.69;-0.61;14;8103;-1022
59000;0.26;0.30;-0.69;-0.61;12;8105;-1028
59020;0.26;0.30;-0.69;-0.61;11;8102;-1025
59038;0.26;0.30;-0.69;-0.61;9;8099;-1023
59059;0.26;0.30;-0.69;-0.61;10;8100;-1015
59080;0.26;0.30;-0.69;-0.61;5;8100;-1018
59100;0.26;0.30;-0.69;-0.61;8;8102;-1016
59118;0.26;0.30;-0.69;-0.61;5;8100;-1015
59138;0.26;0.30;-0.69;-0.61;4;8099;-1015
59159;0.26;0.30;-0.69;-0.61;7;8103;-1012
59179;0.26;0.30;-0.69;-0.61;6;8105;-1012
59198;0.26;0.30;-0.69;-0.61;7;8110;-1012
59221;0.26;0.30;-0.69;-0.61;6;8109;-1010
59242;0.26;0.30;-0.69;-0.61;6;8108;-1014
59261;0.26;0.30;-0.69;-0.61;4;8106;-1018
59282;0.26;0.30;-0.69;-0.61;4;8109;-1018
59301;0.26;0.30;-0.69;-0.61;3;8106;-1015
59322;0.26;0.30;-0.69;-0.61;5;8103;-1017
59346;0.26;0.30;-0.69;-0.61;13;8102;-1016
59367;0.26;0.30;-0.69;-0.61;13;8100;-1018
59386;0.26;0.30;-0.69;-0.61;16;8099;-1018
59407;0.26;0.30;-0.69;-0.61;10;8101;-1020
59426;0.26;0.30;-0.69;-0.61;10;8102;-1018
59447;0.26;0.30;-0.69;-0.61;8;8103;-1014
59469;0.26;0.30;-0.69;-0.61;6;8103;-1015
59490;0.26;0.30;-0.69;-0.61;11;8103;-1014
59510;0.26;0.30;-0.69;-0.61;12;8102;-1017
59531;0.26;0.30;-0.69;-0.61;15;8101;-1014
59550;0.26;0.30;-0.69;-0.61;15;8101;-1014
59572;0.26;0.30;-0.69;-0.61;16;8101;-1009
59602;0.26;0.30;-0.69;-0.61;18;8103;-1005
59621;0.26;0.30;-0.69;-0.61;15;8103;-1008
59639;0.26;0.30;-0.69;-0.61;11;8107;-1012
59661;0.26;0.30;-0.69;-0.61;11;8106;-1015
59682;0.26;0.30;-0.69;-0.61;6;8104;-1018
59701;0.26;0.30;-0.69;-0.61;4;8107;-1018
59723;0.26;0.30;-0.69;-0.61;5;8103;-1021
59745;0.26;0.30;-0.69;-0.61;3;8104;-1020
59765;0.26;0.30;-0.69;-0.61;2;8099;-1022
59784;0.26;0.30;-0.69;-0.61;1;8098;-1020
59803;0.26;0.30;-0.69;-0.61;4;8100;-1018
59827;0.26;0.30;-0.69;-0.61;12;8108;-1017
59847;0.26;0.30;-0.69;-0.61;7;8107;-1011
59865;0.26;0.30;-0.69;-0.61;8;8109;-1007
59886;0.26;0.30;-0.69;-0.61;12;8105;-1005
59906;0.26;0.30;-0.69;-0.61;10;8104;-1007
59927;0.26;0.30;-0.69;-0.61;15;8107;-1006
59945;0.26;0.30;-0.69;-0.61;13;8108;-1010
59969;0.26;0.30;-0.69;-0.61;15;8106;-1011
59989;0.26;0.30;-0.69;-0.61;16;8108;-1016
60009;0.26;0.30;-0.69;-0.61;15;8105;-1018
60029;0.26;0.30;-0.69;-0.61;14;8102;-1008
60050;0.26;0.30;-0.69;-0.61;12;8100;-1008
60069;0.26;0.30;-0.69;-0.61;13;8104;-1009
60089;0.26;0.30;-0.69;-0.61;18;8106;-1004
60109;0.26;0.30;-0.69;-0.61;16;8105;-1015
60130;0.26;0.30;-0.69;-0.61;12;8102;-1018
60149;0.26;0.30;-0.69;-0.61;10;8106;-1014
60170;0.26;0.30;-0.69;-0.61;12;8106;-1008
60189;0.26;0.30;-0.69;-0.61;13;8102;-1007
60212;0.26;0.30;-0.69;-0.61;13;8102;-1003
60232;0.26;0.30;-0.69;-0.61;8;8106;-1016
60253;0.26;0.30;-0.69;-0.61;5;8104;-1018
60273;0.26;0.30;-0.69;-0.61;6;8103;-1019
60291;0.26;0.30;-0.69;-0.61;9;8105;-1022
60316;0.26;0.30;-0.69;-0.60;-59;8109;-1207
60338;0.26;0.30;-0.69;-0.60;-50;8112;-1196
60357;0.26;0.30;-0.69;-0.60;-60;8117;-1202
60375;0.26;0.30;-0.69;-0.60;-66;8116;-1212
60396;0.26;0.30;-0.69;-0.60;-56;8112;-1201
60417;0.26;0.30;-0.69;-0.60;-57;8114;-1205
60437;0.26;0.30;-0.69;-0.60;-59;8111;-1203
60458;0.26;0.30;-0.69;-0.60;-54;8104;-1180
60480;0.26;0.30;-0.69;-0.61;-45;8103;-1133
60500;0.26;0.30;-0.69;-0.61;-40;8101;-1122
60521;0.26;0.30;-0.69;-0.61;-37;8101;-1120
60540;0.26;0.30;-0.69;-0.61;-38;8108;-1123
60568;0.26;0.30;-0.69;-0.61;-34;8115;-1120
60586;0.26;0.30;-0.69;-0.61;18;8083;-961
60605;0.26;0.30;-0.69;-0.61;22;8079;-952
60624;0.26;0.30;-0.69;-0.61;23;8083;-959
60646;0.26;0.30;-0.69;-0.61;21;8088;-969
60665;0.26;0.30;-0.69;-0.61;24;8089;-971
60684;0.26;0.30;-0.69;-0.61;22;8091;-977
60707;0.26;0.30;-0.69;-0.61;27;8091;-976
60728;0.26;0.30;-0.69;-0.61;29;8097;-977
60747;0.26;0.30;-0.69;-0.61;28;8096;-979
60768;0.26;0.30;-0.69;-0.61;19;8100;-997
