t;w;x;y;z;ax;ay;az
1054;0.64;0.74;0.16;0.14;6;8088;-1236
1071;0.64;0.74;0.16;0.14;7;8087;-1230
1088;0.64;0.74;0.16;0.14;13;8084;-1228
1104;0.64;0.74;0.16;0.14;16;8086;-1226
1121;0.64;0.74;0.16;0.14;22;8081;-1225
1139;0.64;0.74;0.16;0.14;27;8082;-1228
1156;0.64;0.74;0.16;0.14;24;8081;-1232
1174;0.64;0.74;0.16;0.14;21;8080;-1237
1191;0.64;0.74;0.16;0.14;22;8081;-1243
1208;0.64;0.74;0.16;0.14;15;8085;-1257
1226;0.64;0.74;0.16;0.14;5;8093;-1266
1243;0.64;0.74;0.16;0.14;-3;8097;-1275
1261;0.64;0.74;0.16;0.14;0;8094;-1280
1280;0.64;0.74;0.16;0.14;0;8091;-1280
1298;0.64;0.74;0.16;0.14;-3;8085;-1272
1316;0.64;0.74;0.16;0.14;-1;8082;-1270
1333;0.64;0.74;0.16;0.14;0;8084;-1267
1350;0.64;0.74;0.16;0.14;0;8083;-1263
1367;0.64;0.74;0.16;0.14;1;8086;-1256
1386;0.64;0.74;0.16;0.14;3;8093;-1252
1403;0.64;0.74;0.16;0.14;3;8091;-1244
1419;0.64;0.74;0.16;0.14;22;8085;-1211
1437;0.64;0.74;0.16;0.14;28;8079;-1192
1455;0.64;0.74;0.16;0.14;28;8083;-1204
1473;0.64;0.74;0.16;0.14;19;8080;-1219
1489;0.64;0.74;0.16;0.14;14;8082;-1228
1511;0.64;0.74;0.16;0.14;12;8085;-1236
1529;0.64;0.74;0.16;0.14;12;8086;-1244
1545;0.64;0.74;0.16;0.14;11;8083;-1242
1561;0.64;0.74;0.16;0.14;7;8086;-1237
1584;0.64;0.74;0.16;0.14;13;8087;-1232
1603;0.64;0.74;0.16;0.14;16;8085;-1232
1619;0.64;0.74;0.16;0.14;16;8085;-1235
1634;0.64;0.74;0.16;0.14;14;8085;-1233
1654;0.64;0.74;0.16;0.14;17;8086;-1241
1672;0.64;0.74;0.16;0.14;14;8088;-1238
1689;0.64;0.74;0.16;0.14;13;8092;-1237
1704;0.64;0.74;0.16;0.14;17;8092;-1236
1724;0.64;0.74;0.16;0.14;21;8091;-1227
1744;0.64;0.74;0.16;0.14;24;8091;-1218
1760;0.64;0.74;0.16;0.14;20;8090;-1221
1778;0.64;0.74;0.16;0.14;17;8091;-1223
1796;0.64;0.74;0.16;0.14;17;8090;-1221
1814;0.64;0.74;0.16;0.14;17;8090;-1231
1830;0.64;0.74;0.16;0.14;18;8087;-1230
1847;0.64;0.74;0.16;0.14;17;8086;-1228
1866;0.64;0.74;0.16;0.14;18;8087;-1229
1883;0.64;0.74;0.16;0.14;17;8087;-1230
1900;0.64;0.74;0.16;0.14;14;8085;-1235
1917;0.64;0.74;0.16;0.14;10;8087;-1238
1936;0.64;0.74;0.16;0.14;13;8085;-1231
1956;0.64;0.74;0.16;0.14;14;8080;-1216
1973;0.64;0.74;0.16;0.14;12;8077;-1214
1991;0.64;0.74;0.16;0.14;11;8080;-1214
2008;0.64;0.74;0.16;0.14;13;8079;-1209
2026;0.64;0.74;0.16;0.14;14;8082;-1201
2043;0.64;0.74;0.16;0.14;19;8083;-1203
2060;0.64;0.74;0.16;0.14;16;8084;-1204
2078;0.64;0.74;0.16;0.14;16;8084;-1213
2095;0.64;0.74;0.16;0.14;16;8086;-1212
2113;0.64;0.74;0.16;0.14;16;8086;-1217
2130;0.64;0.74;0.16;0.14;17;8087;-1221
2154;0.64;0.74;0.16;0.14;18;8079;-1236
2171;0.64;0.74;0.16;0.14;12;8081;-1234
2193;0.64;0.74;0.16;0.14;10;8086;-1232
2209;0.64;0.74;0.16;0.14;11;8085;-1232
2226;0.64;0.74;0.16;0.14;16;8085;-1230
2246;0.64;0.74;0.16;0.14;13;8086;-1235
2262;0.64;0.74;0.16;0.14;13;8085;-1231
2279;0.64;0.74;0.16;0.14;13;8083;-1230
2296;0.64;0.74;0.16;0.14;12;8082;-1230
2315;0.64;0.74;0.16;0.14;17;8085;-1232
2333;0.64;0.74;0.16;0.14;16;8087;-1230
2348;0.64;0.74;0.16;0.14;17;8094;-1232
2367;0.64;0.74;0.16;0.14;16;8094;-1233
2385;0.64;0.74;0.16;0.14;21;8095;-1230
2402;0.64;0.74;0.16;0.14;21;8095;-1230
2421;0.64;0.74;0.16;0.14;22;8091;-1232
2440;0.64;0.74;0.16;0.14;25;8091;-1231
2459;0.64;0.74;0.16;0.14;23;8095;-1235
2475;0.64;0.74;0.16;0.14;14;8095;-1234
2492;0.64;0.74;0.16;0.14;16;8090;-1236
2510;0.64;0.74;0.16;0.14;14;8087;-1240
2528;0.64;0.74;0.16;0.14;10;8085;-1231
2545;0.64;0.74;0.16;0.14;9;8084;-1233
2561;0.64;0.74;0.16;0.14;9;8085;-1239
2580;0.64;0.74;0.16;0.14;11;8082;-1237
2598;0.64;0.74;0.16;0.14;16;8086;-1241
2614;0.64;0.74;0.16;0.14;15;8085;-1232
2631;0.64;0.74;0.16;0.14;15;8088;-1228
2653;0.64;0.74;0.16;0.14;14;8090;-1224
2671;0.64;0.74;0.16;0.14;11;8089;-1228
2687;0.64;0.74;0.16;0.14;13;8091;-1228
2714;0.64;0.74;0.16;0.14;10;8093;-1220
2732;0.64;0.74;0.16;0.14;8;8090;-1224
2750;0.64;0.74;0.16;0.14;8;8089;-1228
2767;0.64;0.74;0.16;0.14;7;8091;-1229
2785;0.64;0.74;0.16;0.14;10;8092;-1221
2817;0.64;0.74;0.16;0.14;8;8095;-1222
2834;0.64;0.74;0.16;0.14;8;8089;-1227
2850;0.64;0.74;0.16;0.14;11;8089;-1228
2867;0.64;0.74;0.16;0.14;10;8091;-1230
2886;0.64;0.74;0.16;0.14;13;8093;-1231
2909;0.64;0.74;0.16;0.14;14;8090;-1230
2944;0.64;0.74;0.16;0.14;19;8087;-1230
2961;0.64;0.74;0.16;0.14;21;8088;-1229
2978;0.64;0.74;0.16;0.14;25;8084;-1231
2996;0.64;0.74;0.16;0.14;24;8086;-1232
3013;0.64;0.74;0.16;0.14;23;8087;-1230
3029;0.64;0.74;0.16;0.14;20;8091;-1235
3048;0.64;0.74;0.16;0.14;21;8089;-1237
3066;0.64;0.74;0.16;0.14;21;8090;-1240
3082;0.64;0.74;0.16;0.14;19;8087;-1241
3099;0.64;0.74;0.16;0.14;21;8086;-1232
3118;0.64;0.74;0.16;0.14;21;8091;-1231
3137;0.64;0.74;0.16;0.14;18;8089;-1232
3155;0.64;0.74;0.16;0.14;18;8086;-1232
3173;0.64;0.74;0.16;0.14;21;8083;-1232
3192;0.64;0.74;0.16;0.14;21;8085;-1229
3209;0.64;0.74;0.16;0.14;23;8086;-1231
3234;0.64;0.74;0.16;0.14;28;8091;-1223
3251;0.64;0.74;0.16;0.14;26;8091;-1224
3270;0.64;0.74;0.16;0.14;23;8091;-1224
3287;0.64;0.74;0.16;0.14;19;8090;-1221
3304;0.64;0.74;0.16;0.14;17;8091;-1220
3321;0.64;0.74;0.16;0.14;18;8090;-1224
3340;0.64;0.74;0.16;0.14;18;8092;-1228
3357;0.64;0.74;0.16;0.14;15;8090;-1228
3377;0.64;0.74;0.16;0.14;13;8088;-1229
3395;0.64;0.74;0.16;0.14;18;8084;-1223
3412;0.64;0.74;0.16;0.14;16;8082;-1223
3430;0.64;0.74;0.16;0.14;15;8077;-1223
3448;0.64;0.74;0.16;0.14;16;8079;-1219
3465;0.64;0.74;0.16;0.14;17;8081;-1221
3483;0.64;0.74;0.16;0.14;17;8083;-1219
3500;0.64;0.74;0.16;0.14;16;8084;-1220
3518;0.64;0.74;0.16;0.14;16;8086;-1225
3535;0.64;0.74;0.16;0.14;14;8087;-1221
3552;0.64;0.74;0.16;0.14;17;8085;-1220
3570;0.64;0.74;0.16;0.14;18;8084;-1225
3587;0.64;0.74;0.16;0.14;20;8079;-1227
3608;0.64;0.74;0.16;0.14;21;8082;-1228
3625;0.64;0.74;0.16;0.14;16;8085;-1228
3644;0.64;0.74;0.16;0.14;14;8089;-1223
3661;0.64;0.74;0.16;0.14;15;8092;-1225
3677;0.64;0.74;0.16;0.14;17;8089;-1225
3695;0.64;0.74;0.16;0.14;16;8088;-1221
3713;0.64;0.74;0.16;0.14;15;8086;-1222
3731;0.64;0.74;0.16;0.14;12;8088;-1222
3747;0.64;0.74;0.16;0.14;9;8088;-1220
3764;0.64;0.74;0.16;0.14;10;8088;-1224
3793;0.64;0.74;0.16;0.14;11;8087;-1229
3810;0.64;0.74;0.16;0.14;13;8086;-1234
3827;0.64;0.74;0.16;0.14;13;8087;-1231
3848;0.64;0.74;0.16;0.14;14;8087;-1231
4872;0.64;0.74;0.16;0.14;26;8088;-1229
4889;0.64;0.74;0.16;0.14;20;8086;-1230
4905;0.64;0.74;0.16;0.14;17;8086;-1231
4924;0.64;0.74;0.16;0.14;13;8085;-1236
4941;0.64;0.74;0.16;0.14;9;8087;-1231
4956;0.64;0.74;0.16;0.14;8;8086;-1221
4975;0.64;0.74;0.16;0.14;14;8083;-1223
4993;0.64;0.74;0.16;0.14;17;8082;-1228
5010;0.64;0.74;0.16;0.14;13;8083;-1229
5026;0.64;0.74;0.16;0.14;10;8086;-1225
5043;0.64;0.74;0.16;0.14;12;8089;-1228
5062;0.64;0.74;0.16;0.14;17;8086;-1235
5082;0.64;0.74;0.16;0.14;20;8087;-1234
5100;0.64;0.74;0.16;0.14;18;8086;-1231
5117;0.64;0.74;0.16;0.14;14;8085;-1229
5135;0.64;0.74;0.16;0.14;12;8082;-1236
5152;0.64;0.74;0.16;0.14;18;8082;-1237
5169;0.64;0.74;0.16;0.14;24;8086;-1237
5187;0.64;0.74;0.16;0.14;25;8087;-1233
5204;0.64;0.74;0.16;0.14;19;8086;-1232
5222;0.64;0.74;0.16;0.14;20;8088;-1240
5239;0.64;0.74;0.16;0.14;19;8086;-1234
5255;0.64;0.74;0.16;0.14;18;8086;-1231
5274;0.64;0.74;0.16;0.14;19;8084;-1233
5290;0.64;0.74;0.16;0.14;20;8081;-1233
5312;0.64;0.74;0.16;0.14;19;8084;-1233
5328;0.64;0.74;0.16;0.14;19;8086;-1239
5345;0.64;0.74;0.16;0.14;17;8085;-1246
5372;0.64;0.74;0.16;0.14;19;8090;-1226
5389;0.64;0.74;0.16;0.14;19;8091;-1228
5406;0.64;0.74;0.16;0.14;18;8089;-1234
5423;0.64;0.74;0.16;0.14;14;8086;-1235
5442;0.64;0.74;0.16;0.14;17;8082;-1233
5459;0.64;0.74;0.16;0.14;15;8082;-1229
5476;0.64;0.74;0.16;0.14;21;8081;-1225
5493;0.64;0.74;0.16;0.14;24;8083;-1225
5511;0.64;0.74;0.16;0.14;22;8081;-1230
5529;0.64;0.74;0.16;0.14;22;8083;-1235
5547;0.64;0.74;0.16;0.14;24;8083;-1232
5567;0.64;0.74;0.16;0.14;21;8087;-1231
5585;0.64;0.74;0.16;0.14;20;8088;-1228
5600;0.64;0.74;0.16;0.14;15;8089;-1223
5617;0.64;0.74;0.16;0.14;9;8084;-1220
5636;0.64;0.74;0.16;0.14;8;8085;-1224
5654;0.64;0.74;0.16;0.14;5;8087;-1226
5670;0.64;0.74;0.16;0.14;6;8087;-1229
5686;0.64;0.74;0.16;0.14;12;8085;-1227
5705;0.64;0.74;0.16;0.14;13;8082;-1220
5723;0.64;0.74;0.16;0.14;13;8081;-1223
5741;0.64;0.74;0.16;0.14;12;8084;-1226
5781;0.64;0.74;0.16;0.14;15;8086;-1230
5798;0.64;0.74;0.16;0.14;15;8085;-1231
5815;0.64;0.74;0.16;0.14;16;8086;-1232
5832;0.64;0.74;0.16;0.14;17;8086;-1230
5849;0.64;0.74;0.16;0.14;22;8084;-1235
5868;0.64;0.74;0.16;0.14;22;8088;-1231
5885;0.64;0.74;0.16;0.14;23;8091;-1230
5913;0.64;0.74;0.16;0.14;5;8092;-1229
5931;0.64;0.74;0.16;0.14;3;8095;-1229
5963;0.64;0.74;0.16;0.14;2;8096;-1225
5979;0.64;0.74;0.16;0.14;5;8098;-1227
5995;0.64;0.74;0.16;0.14;9;8098;-1219
6012;0.64;0.74;0.16;0.14;9;8098;-1216
6034;0.64;0.74;0.16;0.14;10;8099;-1223
6051;0.64;0.74;0.16;0.14;12;8095;-1232
6068;0.64;0.74;0.16;0.14;13;8094;-1231
6086;0.64;0.74;0.16;0.14;17;8094;-1232
6103;0.64;0.74;0.16;0.14;18;8091;-1234
6121;0.64;0.74;0.16;0.14;20;8092;-1229
6138;0.64;0.74;0.16;0.14;23;8088;-1226
6155;0.64;0.74;0.16;0.14;16;8085;-1227
6173;0.64;0.74;0.16;0.14;16;8086;-1230
6190;0.64;0.74;0.16;0.14;19;8085;-1223
6208;0.64;0.74;0.16;0.14;17;8086;-1221
6225;0.64;0.74;0.16;0.14;17;8087;-1229
6242;0.64;0.74;0.16;0.14;19;8088;-1231
6264;0.64;0.74;0.16;0.14;17;8087;-1236
6281;0.64;0.74;0.16;0.14;15;8089;-1242
6298;0.64;0.74;0.16;0.14;15;8086;-1243
6315;0.64;0.74;0.16;0.14;18;8087;-1236
6334;0.64;0.74;0.16;0.14;19;8085;-1230
6351;0.64;0.74;0.16;0.14;20;8084;-1228
6367;0.64;0.74;0.16;0.14;20;8086;-1226
6385;0.64;0.74;0.16;0.14;22;8088;-1226
6403;0.64;0.74;0.16;0.14;26;8089;-1224
6421;0.64;0.74;0.16;0.14;26;8092;-1228
6437;0.64;0.74;0.16;0.14;25;8089;-1226
6463;0.64;0.74;0.16;0.14;19;8094;-1235
6481;0.64;0.74;0.16;0.14;22;8092;-1238
6501;0.64;0.74;0.16;0.14;17;8090;-1239
6517;0.64;0.74;0.16;0.14;18;8086;-1243
6536;0.64;0.74;0.16;0.14;20;8083;-1240
6555;0.64;0.74;0.16;0.14;23;8090;-1238
6570;0.64;0.74;0.16;0.14;24;8094;-1235
6587;0.64;0.74;0.16;0.14;19;8094;-1233
6606;0.64;0.74;0.16;0.14;21;8093;-1225
6623;0.64;0.74;0.16;0.14;20;8098;-1220
6640;0.64;0.74;0.16;0.14;18;8095;-1214
6656;0.64;0.74;0.16;0.14;16;8094;-1206
6675;0.64;0.74;0.16;0.14;15;8091;-1209
6693;0.64;0.74;0.16;0.14;12;8091;-1218
6709;0.64;0.74;0.16;0.14;12;8088;-1220
6730;0.64;0.74;0.16;0.14;9;8089;-1220
6748;0.64;0.74;0.16;0.14;9;8088;-1220
6766;0.64;0.74;0.16;0.14;13;8088;-1221
6782;0.64;0.74;0.16;0.14;11;8087;-1224
6800;0.64;0.74;0.16;0.14;14;8087;-1225
6818;0.64;0.74;0.16;0.14;16;8087;-1226
6835;0.64;0.74;0.16;0.14;17;8085;-1229
6852;0.64;0.74;0.16;0.14;14;8085;-1232
6869;0.64;0.74;0.16;0.14;14;8088;-1231
6889;0.64;0.74;0.16;0.14;12;8087;-1236
6905;0.64;0.74;0.16;0.14;13;8084;-1238
6921;0.64;0.74;0.16;0.14;18;8084;-1232
6939;0.64;0.74;0.16;0.14;15;8080;-1225
6961;0.64;0.74;0.16;0.14;15;8082;-1228
6978;0.64;0.74;0.16;0.14;15;8083;-1231
6996;0.64;0.74;0.16;0.14;17;8085;-1232
7022;0.64;0.74;0.16;0.14;14;8084;-1231
7039;0.64;0.74;0.16;0.14;9;8085;-1233
7057;0.64;0.74;0.16;0.14;11;8089;-1232
7074;0.64;0.74;0.16;0.14;10;8090;-1235
7091;0.64;0.74;0.16;0.14;13;8090;-1230
7110;0.64;0.74;0.16;0.14;14;8090;-1230
7127;0.64;0.74;0.16;0.14;8;8089;-1233
7145;0.64;0.74;0.16;0.14;8;8084;-1229
7162;0.64;0.74;0.16;0.14;8;8083;-1230
7179;0.64;0.74;0.16;0.14;7;8080;-1229
7201;0.64;0.74;0.16;0.14;11;8080;-1227
7218;0.64;0.74;0.16;0.14;16;8081;-1225
7235;0.64;0.74;0.16;0.14;11;8085;-1216
7252;0.64;0.74;0.16;0.14;7;8087;-1215
7271;0.64;0.74;0.16;0.14;13;8087;-1223
7288;0.64;0.74;0.16;0.14;17;8087;-1228
7304;0.64;0.74;0.16;0.14;19;8088;-1228
7322;0.64;0.74;0.16;0.14;18;8086;-1234
7341;0.64;0.74;0.16;0.14;17;8090;-1233
7358;0.64;0.74;0.16;0.14;16;8088;-1239
7374;0.64;0.74;0.16;0.14;19;8088;-1239
7392;0.64;0.74;0.16;0.14;20;8085;-1241
7415;0.64;0.74;0.16;0.14;15;8088;-1243
7431;0.64;0.74;0.16;0.14;14;8086;-1236
7447;0.64;0.74;0.16;0.14;8;8084;-1233
7466;0.64;0.74;0.16;0.14;12;8084;-1237
7485;0.64;0.74;0.16;0.14;12;8088;-1238
7501;0.64;0.74;0.16;0.14;14;8092;-1239
7517;0.64;0.74;0.16;0.14;13;8093;-1238
7536;0.64;0.74;0.16;0.14;16;8094;-1240
7554;0.64;0.74;0.16;0.14;16;8093;-1242
7582;0.64;0.74;0.16;0.14;14;8087;-1216
7599;0.64;0.74;0.16;0.14;16;8084;-1218
7642;0.64;0.74;0.16;0.14;14;8084;-1217
7660;0.64;0.74;0.16;0.14;14;8084;-1219
7678;0.64;0.74;0.16;0.14;14;8087;-1220
7696;0.64;0.74;0.16;0.14;14;8085;-1224
8722;0.64;0.74;0.16;0.14;25;8087;-1229
8738;0.64;0.74;0.16;0.14;24;8088;-1228
8754;0.64;0.74;0.16;0.14;23;8092;-1226
8772;0.64;0.74;0.16;0.14;19;8091;-1220
8791;0.64;0.74;0.16;0.14;25;8089;-1218
8809;0.64;0.74;0.16;0.14;24;8088;-1220
8825;0.64;0.74;0.16;0.14;29;8084;-1221
8842;0.64;0.74;0.16;0.14;26;8086;-1224
8861;0.64;0.74;0.16;0.14;23;8083;-1219
8878;0.64;0.74;0.16;0.14;19;8083;-1217
8895;0.64;0.74;0.16;0.14;14;8082;-1214
8916;0.64;0.74;0.16;0.14;14;8083;-1218
8934;0.64;0.74;0.16;0.14;16;8082;-1222
8951;0.64;0.74;0.16;0.14;15;8082;-1226
8968;0.64;0.74;0.16;0.14;16;8079;-1231
8986;0.64;0.74;0.16;0.14;13;8081;-1234
9003;0.64;0.74;0.16;0.14;10;8085;-1237
9021;0.64;0.74;0.16;0.14;17;8087;-1238
9040;0.64;0.74;0.16;0.14;14;8086;-1239
9057;0.64;0.74;0.16;0.14;11;8089;-1236
9085;0.64;0.74;0.16;0.14;11;8090;-1231
9111;0.64;0.74;0.16;0.14;7;8085;-1243
9128;0.64;0.74;0.16;0.14;5;8086;-1249
9146;0.64;0.74;0.16;0.14;9;8081;-1244
9166;0.64;0.74;0.16;0.14;8;8084;-1234
9185;0.64;0.74;0.16;0.14;8;8087;-1233
9202;0.64;0.74;0.16;0.14;15;8090;-1236
9218;0.64;0.74;0.16;0.14;14;8089;-1236
9237;0.64;0.74;0.16;0.14;18;8086;-1235
9255;0.64;0.74;0.16;0.14;17;8087;-1239
9272;0.64;0.74;0.16;0.14;18;8091;-1235
9289;0.64;0.74;0.16;0.14;18;8090;-1241
9306;0.64;0.74;0.16;0.14;15;8091;-1244
9325;0.64;0.74;0.16;0.14;17;8093;-1242
9342;0.64;0.74;0.16;0.14;15;8097;-1236
9359;0.64;0.74;0.16;0.14;14;8090;-1230
9376;0.64;0.74;0.16;0.14;14;8085;-1230
9398;0.64;0.74;0.16;0.14;14;8084;-1227
9415;0.64;0.74;0.16;0.14;15;8087;-1228
9431;0.64;0.74;0.16;0.14;17;8087;-1229
9450;0.64;0.74;0.16;0.14;19;8086;-1228
9468;0.64;0.74;0.16;0.14;18;8085;-1222
9484;0.64;0.74;0.16;0.14;20;8088;-1226
9501;0.64;0.74;0.16;0.14;26;8090;-1222
9520;0.64;0.74;0.16;0.14;21;8089;-1222
9539;0.64;0.74;0.16;0.14;19;8089;-1220
9554;0.64;0.74;0.16;0.14;19;8090;-1220
9570;0.64;0.74;0.16;0.14;21;8089;-1224
9590;0.64;0.74;0.16;0.14;17;8084;-1230
9608;0.64;0.74;0.16;0.14;15;8087;-1233
9627;0.64;0.74;0.16;0.14;12;8089;-1240
9645;0.64;0.74;0.16;0.14;11;8092;-1232
9671;0.64;0.74;0.16;0.14;15;8088;-1228
9688;0.64;0.74;0.16;0.14;19;8086;-1226
9704;0.64;0.74;0.16;0.14;16;8086;-1228
9721;0.64;0.74;0.16;0.14;17;8083;-1231
9738;0.64;0.74;0.16;0.14;20;8085;-1232
9756;0.64;0.74;0.16;0.14;17;8085;-1237
9773;0.64;0.74;0.16;0.14;16;8086;-1235
9791;0.64;0.74;0.16;0.14;15;8088;-1231
9808;0.64;0.74;0.16;0.14;14;8089;-1237
9825;0.64;0.74;0.16;0.14;16;8091;-1241
9847;0.64;0.74;0.16;0.14;17;8090;-1238
9862;0.64;0.74;0.16;0.14;15;8088;-1231
9881;0.64;0.74;0.16;0.14;17;8084;-1229
9899;0.64;0.74;0.16;0.14;14;8081;-1229
9917;0.64;0.74;0.16;0.14;10;8082;-1236
9932;0.64;0.74;0.16;0.14;12;8087;-1235
9949;0.64;0.74;0.16;0.14;19;8084;-1231
9969;0.64;0.74;0.16;0.14;18;8085;-1231
9985;0.64;0.74;0.16;0.14;18;8086;-1232
10002;0.64;0.74;0.16;0.14;18;8089;-1230
10019;0.64;0.74;0.16;0.14;17;8087;-1229
10038;0.64;0.74;0.16;0.14;16;8085;-1230
10055;0.64;0.74;0.16;0.14;13;8091;-1231
10074;0.64;0.74;0.16;0.14;18;8090;-1232
10094;0.64;0.74;0.16;0.14;19;8093;-1232
10112;0.64;0.74;0.16;0.14;17;8095;-1237
10128;0.64;0.74;0.16;0.14;17;8093;-1239
10144;0.64;0.74;0.16;0.14;16;8091;-1237
10163;0.64;0.74;0.16;0.14;15;8093;-1232
10181;0.64;0.74;0.16;0.14;16;8085;-1238
10197;0.64;0.74;0.16;0.14;18;8086;-1239
10214;0.64;0.74;0.16;0.14;16;8086;-1238
10240;0.64;0.74;0.16;0.14;16;8082;-1227
10259;0.64;0.74;0.16;0.14;14;8081;-1224
10275;0.64;0.74;0.16;0.14;13;8086;-1222
10291;0.64;0.74;0.16;0.14;12;8085;-1224
10314;0.64;0.74;0.16;0.14;13;8088;-1224
10331;0.64;0.74;0.16;0.14;13;8091;-1228
10348;0.64;0.74;0.16;0.14;13;8092;-1227
10365;0.64;0.74;0.16;0.14;17;8089;-1230
10384;0.64;0.74;0.16;0.14;12;8085;-1232
10402;0.64;0.74;0.16;0.14;19;8088;-1232
10419;0.64;0.74;0.16;0.14;16;8083;-1228
10457;0.64;0.74;0.16;0.14;15;8083;-1238
10475;0.64;0.74;0.16;0.14;22;8085;-1235
10493;0.64;0.74;0.16;0.14;22;8085;-1238
10509;0.64;0.74;0.16;0.14;25;8086;-1240
10526;0.64;0.74;0.16;0.14;26;8085;-1234
10548;0.64;0.74;0.16;0.14;25;8087;-1228
10566;0.64;0.74;0.16;0.14;25;8087;-1228
10582;0.64;0.74;0.16;0.14;28;8086;-1218
10600;0.64;0.74;0.16;0.14;26;8081;-1218
10618;0.64;0.74;0.16;0.14;26;8078;-1224
10635;0.64;0.74;0.16;0.14;29;8080;-1227
10652;0.64;0.74;0.16;0.14;25;8085;-1227
10669;0.64;0.74;0.16;0.14;24;8087;-1230
10688;0.64;0.74;0.16;0.14;23;8083;-1230
10705;0.64;0.74;0.16;0.14;20;8085;-1229
10721;0.64;0.74;0.16;0.14;14;8087;-1228
10739;0.64;0.74;0.16;0.14;12;8091;-1228
10757;0.64;0.74;0.16;0.14;12;8094;-1230
10781;0.64;0.74;0.16;0.14;23;8087;-1226
10796;0.64;0.74;0.16;0.14;23;8090;-1227
10815;0.64;0.74;0.16;0.14;24;8092;-1219
10833;0.64;0.74;0.16;0.14;25;8089;-1224
10850;0.64;0.74;0.16;0.14;22;8086;-1227
10866;0.64;0.74;0.16;0.14;21;8082;-1228
10884;0.64;0.74;0.16;0.14;21;8084;-1227
10903;0.64;0.74;0.16;0.14;22;8084;-1226
10920;0.64;0.74;0.16;0.14;22;8089;-1227
10936;0.64;0.74;0.16;0.14;19;8090;-1227
10954;0.64;0.74;0.16;0.14;22;8089;-1225
10972;0.64;0.74;0.16;0.14;22;8090;-1225
10993;0.64;0.74;0.16;0.14;21;8089;-1221
11010;0.64;0.74;0.16;0.14;21;8092;-1226
11027;0.64;0.74;0.16;0.14;21;8092;-1226
11045;0.64;0.74;0.16;0.14;18;8090;-1226
11062;0.64;0.74;0.16;0.14;15;8091;-1223
11080;0.64;0.74;0.16;0.14;17;8091;-1227
11097;0.64;0.74;0.16;0.14;18;8090;-1224
11115;0.64;0.74;0.16;0.14;19;8093;-1228
11132;0.64;0.74;0.16;0.14;21;8095;-1232
11151;0.64;0.74;0.16;0.14;20;8092;-1230
11169;0.64;0.74;0.16;0.14;13;8088;-1234
11197;0.64;0.74;0.16;0.14;14;8085;-1239
11216;0.64;0.74;0.16;0.14;18;8081;-1239
11233;0.64;0.74;0.16;0.14;28;8083;-1239
11250;0.64;0.74;0.16;0.14;28;8084;-1237
11267;0.64;0.74;0.16;0.14;26;8086;-1232
11286;0.64;0.74;0.16;0.14;26;8088;-1231
11303;0.64;0.74;0.16;0.14;23;8090;-1234
11330;0.64;0.74;0.16;0.14;19;8089;-1229
11347;0.64;0.74;0.16;0.14;18;8088;-1232
11366;0.64;0.74;0.16;0.14;19;8083;-1233
11383;0.64;0.74;0.16;0.14;22;8081;-1233
11399;0.64;0.74;0.16;0.14;24;8080;-1233
11417;0.64;0.74;0.16;0.14;21;8082;-1236
11435;0.64;0.74;0.16;0.14;16;8083;-1241
11456;0.64;0.74;0.16;0.14;21;8084;-1246
11472;0.64;0.74;0.16;0.14;23;8088;-1242
11490;0.64;0.74;0.16;0.14;23;8087;-1241
11509;0.64;0.74;0.16;0.14;21;8089;-1240
11525;0.64;0.74;0.16;0.14;20;8087;-1248
12549;0.64;0.74;0.16;0.14;16;8092;-1233
12569;0.64;0.74;0.16;0.14;14;8094;-1235
12587;0.64;0.74;0.16;0.14;16;8094;-1240
12604;0.64;0.74;0.16;0.14;21;8093;-1240
12620;0.64;0.74;0.16;0.14;19;8092;-1230
12638;0.64;0.74;0.16;0.14;18;8094;-1228
12657;0.64;0.74;0.16;0.14;17;8090;-1231
12676;0.64;0.74;0.16;0.14;17;8088;-1237
12694;0.64;0.74;0.16;0.14;18;8091;-1230
12713;0.64;0.74;0.16;0.14;17;8090;-1231
12730;0.64;0.74;0.16;0.14;16;8088;-1236
12746;0.64;0.74;0.16;0.14;19;8086;-1230
12764;0.64;0.74;0.16;0.14;23;8086;-1232
12783;0.64;0.74;0.16;0.14;22;8089;-1234
12800;0.64;0.74;0.16;0.14;21;8092;-1231
12817;0.64;0.74;0.16;0.14;20;8093;-1228
12834;0.64;0.74;0.16;0.14;19;8092;-1229
12852;0.64;0.74;0.16;0.14;18;8091;-1229
12870;0.64;0.74;0.16;0.14;21;8091;-1228
12886;0.64;0.74;0.16;0.14;19;8090;-1225
12910;0.64;0.74;0.16;0.14;17;8091;-1225
12927;0.64;0.74;0.16;0.14;15;8087;-1229
12945;0.64;0.74;0.16;0.14;11;8093;-1227
12962;0.64;0.74;0.16;0.14;14;8090;-1223
12979;0.64;0.74;0.16;0.14;12;8093;-1221
12997;0.64;0.74;0.16;0.14;11;8091;-1223
13014;0.64;0.74;0.16;0.14;12;8089;-1233
13032;0.64;0.74;0.16;0.14;14;8092;-1228
13049;0.64;0.74;0.16;0.14;10;8091;-1227
13067;0.64;0.74;0.16;0.14;12;8090;-1227
13085;0.64;0.74;0.16;0.14;13;8085;-1225
13102;0.64;0.74;0.16;0.14;15;8087;-1219
13122;0.64;0.74;0.16;0.14;16;8086;-1224
13140;0.64;0.74;0.16;0.14;18;8081;-1219
13159;0.64;0.74;0.16;0.14;18;8079;-1226
13176;0.64;0.74;0.16;0.14;16;8081;-1235
13192;0.64;0.74;0.16;0.14;15;8081;-1241
13210;0.64;0.74;0.16;0.14;11;8081;-1240
13228;0.64;0.74;0.16;0.14;14;8083;-1232
13246;0.64;0.74;0.16;0.14;14;8085;-1228
13263;0.64;0.74;0.16;0.14;12;8087;-1226
13282;0.64;0.74;0.16;0.14;11;8086;-1230
13321;0.64;0.74;0.16;0.14;9;8081;-1229
13338;0.64;0.74;0.16;0.14;8;8083;-1235
13355;0.64;0.74;0.16;0.14;11;8082;-1237
13376;0.64;0.74;0.16;0.14;15;8082;-1231
13394;0.64;0.74;0.16;0.14;13;8082;-1233
13412;0.64;0.74;0.16;0.14;14;8083;-1234
13428;0.64;0.73;0.00;0.49;5889;-17847;-4358
13449;0.64;0.74;0.16;0.14;16;8092;-1232
13468;0.64;0.74;0.16;0.14;12;8092;-1232
13485;0.64;0.74;0.16;0.14;16;8093;-1230
13502;0.64;0.74;0.16;0.14;19;8090;-1231
13519;0.64;0.74;0.16;0.14;22;8091;-1228
13537;0.64;0.74;0.16;0.14;21;8091;-1227
13555;0.64;0.74;0.16;0.14;20;8090;-1228
13571;0.64;0.74;0.16;0.14;20;8093;-1227
13593;0.64;0.74;0.16;0.14;22;8090;-1231
13612;0.64;0.74;0.16;0.14;21;8087;-1230
13628;0.64;0.74;0.16;0.14;15;8088;-1225
13644;0.64;0.74;0.16;0.14;14;8088;-1222
13663;0.64;0.74;0.16;0.14;13;8090;-1221
13682;0.64;0.74;0.16;0.14;16;8091;-1230
13698;0.64;0.74;0.16;0.14;14;8090;-1233
13715;0.64;0.74;0.16;0.14;10;8088;-1233
13733;0.64;0.74;0.16;0.14;13;8088;-1232
13751;0.64;0.74;0.16;0.14;9;8090;-1232
13768;0.64;0.74;0.16;0.14;9;8089;-1230
13784;0.64;0.74;0.16;0.14;11;8089;-1229
13803;0.64;0.74;0.16;0.14;12;8089;-1231
13824;0.64;0.74;0.16;0.14;15;8091;-1230
13841;0.64;0.74;0.16;0.14;16;8088;-1225
13858;0.64;0.74;0.16;0.14;15;8086;-1218
13877;0.64;0.74;0.16;0.14;11;8082;-1221
13895;0.64;0.74;0.16;0.14;14;8078;-1222
13910;0.64;0.74;0.16;0.14;15;8079;-1220
13929;0.64;0.74;0.16;0.14;15;8080;-1221
13947;0.64;0.74;0.16;0.14;15;8084;-1223
13964;0.64;0.74;0.16;0.14;15;8084;-1226
13981;0.64;0.74;0.16;0.14;15;8089;-1231
14008;0.64;0.74;0.16;0.14;19;8084;-1226
14027;0.64;0.74;0.16;0.14;20;8088;-1225
14047;0.64;0.74;0.16;0.14;20;8091;-1221
14065;0.64;0.74;0.16;0.14;21;8091;-1223
14082;0.64;0.74;0.16;0.14;22;8090;-1230
14100;0.64;0.74;0.16;0.14;17;8083;-1227
14117;0.64;0.74;0.16;0.14;18;8080;-1227
14134;0.64;0.74;0.16;0.14;17;8083;-1231
14152;0.64;0.74;0.16;0.14;11;8083;-1234
14169;0.64;0.74;0.16;0.14;16;8085;-1237
14187;0.64;0.74;0.16;0.14;11;8086;-1239
14204;0.64;0.74;0.16;0.14;13;8084;-1238
14221;0.64;0.74;0.16;0.14;9;8082;-1236
14239;0.64;0.74;0.16;0.14;8;8085;-1229
14256;0.64;0.74;0.16;0.14;9;8082;-1228
14280;0.64;0.74;0.16;0.14;10;8082;-1233
14297;0.64;0.74;0.16;0.14;15;8081;-1232
14327;0.64;0.74;0.16;0.14;15;8079;-1232
14344;0.64;0.74;0.16;0.14;16;8079;-1234
14362;0.64;0.74;0.16;0.14;13;8081;-1235
14378;0.64;0.74;0.16;0.14;12;8082;-1230
14396;0.64;0.74;0.16;0.14;16;8080;-1228
14414;0.64;0.74;0.16;0.14;13;8080;-1225
14431;0.64;0.74;0.16;0.14;8;8082;-1217
14448;0.64;0.74;0.16;0.14;7;8081;-1219
14465;0.64;0.74;0.16;0.14;12;8078;-1231
14484;0.64;0.74;0.16;0.14;11;8082;-1232
14504;0.64;0.74;0.16;0.14;11;8084;-1225
14519;0.64;0.74;0.16;0.14;14;8083;-1226
14549;0.64;0.74;0.16;0.14;27;8085;-1237
14568;0.64;0.74;0.16;0.14;31;8085;-1238
14583;0.64;0.74;0.16;0.14;26;8087;-1233
14599;0.64;0.74;0.16;0.14;20;8089;-1229
14619;0.64;0.74;0.16;0.14;21;8090;-1230
14636;0.64;0.74;0.16;0.14;20;8091;-1230
14653;0.64;0.74;0.16;0.14;18;8086;-1230
14669;0.64;0.74;0.16;0.14;17;8083;-1227
14687;0.64;0.74;0.16;0.14;18;8087;-1231
14706;0.64;0.74;0.16;0.14;18;8092;-1234
14722;0.64;0.74;0.16;0.14;15;8090;-1238
14743;0.64;0.74;0.16;0.14;13;8087;-1238
14761;0.64;0.74;0.16;0.14;15;8086;-1233
14779;0.64;0.74;0.16;0.14;16;8087;-1232
14795;0.64;0.74;0.16;0.14;20;8089;-1230
14812;0.64;0.74;0.16;0.14;20;8090;-1234
14831;0.64;0.74;0.16;0.14;20;8093;-1232
14848;0.64;0.74;0.16;0.14;18;8089;-1232
14865;0.64;0.74;0.16;0.14;17;8085;-1240
14882;0.64;0.74;0.16;0.14;18;8087;-1234
14900;0.64;0.74;0.16;0.14;19;8086;-1233
14918;0.64;0.74;0.16;0.14;15;8081;-1224
14934;0.64;0.74;0.16;0.14;13;8082;-1217
14955;0.64;0.74;0.16;0.14;14;8085;-1219
14973;0.64;0.74;0.16;0.14;17;8088;-1222
14989;0.64;0.74;0.16;0.14;15;8090;-1223
15008;0.64;0.74;0.16;0.14;18;8090;-1221
15024;0.64;0.74;0.16;0.14;17;8089;-1224
15042;0.64;0.74;0.16;0.14;14;8094;-1227
15059;0.64;0.74;0.16;0.14;13;8090;-1220
15077;0.64;0.74;0.16;0.14;11;8090;-1216
15094;0.64;0.74;0.16;0.14;12;8091;-1215
15119;0.64;0.74;0.16;0.14;15;8085;-1231
15137;0.64;0.74;0.16;0.14;13;8088;-1230
15184;0.64;0.74;0.16;0.14;7;8087;-1232
15200;0.64;0.74;0.16;0.14;2;8083;-1226
15221;0.64;0.74;0.16;0.14;4;8082;-1222
15238;0.64;0.74;0.16;0.14;2;8084;-1229
15256;0.64;0.74;0.16;0.14;3;8086;-1225
15273;0.64;0.74;0.16;0.14;4;8090;-1221
15291;0.64;0.74;0.16;0.14;8;8086;-1223
15308;0.64;0.74;0.16;0.14;12;8089;-1223
15325;0.64;0.74;0.16;0.14;12;8092;-1223
15343;0.64;0.74;0.16;0.14;10;8087;-1223
15360;0.64;0.74;0.16;0.14;15;8089;-1227
15378;0.64;0.74;0.16;0.14;11;8087;-1233
16397;0.64;0.74;0.16;0.14;16;8083;-1215
16415;0.64;0.74;0.16;0.14;19;8084;-1215
16432;0.64;0.74;0.16;0.14;21;8085;-1219
16454;0.64;0.74;0.16;0.14;24;8085;-1221
16471;0.64;0.74;0.16;0.14;27;8084;-1225
16488;0.64;0.74;0.16;0.14;26;8088;-1232
16505;0.64;0.74;0.16;0.14;21;8089;-1233
16523;0.64;0.74;0.16;0.14;26;8094;-1231
16541;0.64;0.74;0.16;0.14;29;8095;-1233
16557;0.64;0.74;0.16;0.14;26;8093;-1230
16575;0.64;0.74;0.16;0.14;27;8091;-1224
16593;0.64;0.74;0.16;0.14;23;8086;-1218
16610;0.64;0.74;0.16;0.14;22;8085;-1221
16627;0.64;0.74;0.16;0.14;19;8082;-1226
16644;0.64;0.74;0.16;0.14;21;8082;-1237
16678;0.64;0.74;0.16;0.14;12;8086;-1221
16694;0.64;0.74;0.16;0.14;13;8081;-1226
16710;0.64;0.74;0.16;0.14;9;8083;-1233
16729;0.64;0.74;0.16;0.14;10;8084;-1241
16748;0.64;0.74;0.16;0.14;13;8086;-1244
16764;0.64;0.74;0.16;0.14;17;8088;-1234
16779;0.64;0.74;0.16;0.14;17;8088;-1229
16799;0.64;0.74;0.16;0.14;19;8086;-1226
16817;0.64;0.74;0.16;0.14;22;8086;-1230
16834;0.64;0.74;0.16;0.14;21;8087;-1228
16849;0.64;0.74;0.16;0.14;22;8086;-1231
16869;0.64;0.74;0.16;0.14;22;8085;-1236
16887;0.64;0.74;0.16;0.14;17;8086;-1235
16905;0.64;0.74;0.16;0.14;17;8087;-1227
16923;0.64;0.74;0.16;0.14;20;8086;-1224
16942;0.64;0.74;0.16;0.14;19;8085;-1224
16959;0.64;0.74;0.16;0.14;16;8090;-1222
16975;0.64;0.74;0.16;0.14;16;8092;-1223
16992;0.64;0.74;0.16;0.14;19;8093;-1234
17012;0.64;0.74;0.16;0.14;16;8090;-1239
17028;0.64;0.74;0.16;0.14;12;8086;-1246
17045;0.64;0.74;0.16;0.14;14;8089;-1243
17062;0.64;0.74;0.16;0.14;18;8093;-1241
17082;0.64;0.74;0.16;0.14;16;8090;-1243
17098;0.64;0.74;0.16;0.14;16;8090;-1248
17118;0.64;0.74;0.16;0.14;17;8093;-1242
17136;0.64;0.74;0.16;0.14;18;8095;-1235
17153;0.64;0.74;0.16;0.14;17;8095;-1234
17171;0.64;0.74;0.16;0.14;17;8093;-1232
17189;0.64;0.74;0.16;0.14;21;8092;-1228
17206;0.64;0.74;0.16;0.14;19;8087;-1225
17224;0.64;0.74;0.16;0.14;16;8085;-1225
17247;0.64;0.74;0.16;0.14;13;8092;-1225
17265;0.64;0.74;0.16;0.14;11;8090;-1225
17282;0.64;0.74;0.16;0.14;7;8087;-1229
17300;0.64;0.74;0.16;0.14;1;8087;-1228
17317;0.64;0.74;0.16;0.14;1;8089;-1224
17334;0.64;0.74;0.16;0.14;1;8092;-1225
17355;0.64;0.74;0.16;0.14;2;8087;-1223
17372;0.64;0.74;0.16;0.14;6;8084;-1222
17391;0.64;0.74;0.16;0.14;12;8087;-1224
17410;0.64;0.74;0.16;0.14;16;8089;-1221
17427;0.64;0.74;0.16;0.14;19;8088;-1224
17458;0.64;0.74;0.16;0.14;18;8085;-1225
17476;0.64;0.74;0.16;0.14;17;8084;-1222
17493;0.64;0.74;0.16;0.14;13;8084;-1223
17510;0.64;0.74;0.16;0.14;17;8084;-1224
17527;0.64;0.74;0.16;0.14;20;8088;-1225
17545;0.64;0.74;0.16;0.14;21;8092;-1222
17563;0.64;0.74;0.16;0.14;19;8090;-1221
17582;0.64;0.74;0.16;0.14;18;8093;-1220
17602;0.64;0.74;0.16;0.14;18;8091;-1227
17620;0.64;0.74;0.16;0.14;15;8089;-1232
17637;0.64;0.74;0.16;0.14;13;8087;-1225
17652;0.64;0.74;0.16;0.14;13;8087;-1224
17671;0.64;0.74;0.16;0.14;14;8083;-1224
17690;0.64;0.74;0.16;0.14;14;8086;-1222
17706;0.64;0.74;0.16;0.14;15;8085;-1223
17723;0.64;0.74;0.16;0.14;18;8086;-1220
17741;0.64;0.74;0.16;0.14;21;8087;-1228
17760;0.64;0.74;0.16;0.14;20;8088;-1230
17777;-0.06;-1.72;1.08;0.53;2322;0;-1
17797;0.64;0.74;0.16;0.14;19;8092;-1240
17821;0.64;0.74;0.16;0.14;17;8092;-1234
17838;0.64;0.74;0.16;0.14;14;8092;-1231
17854;0.64;0.74;0.16;0.14;10;8093;-1235
17872;0.64;0.74;0.16;0.14;13;8091;-1239
17890;0.64;0.74;0.16;0.14;14;8090;-1236
17908;0.64;0.74;0.16;0.14;9;8093;-1232
17924;0.64;0.74;0.16;0.14;6;8092;-1229
17942;0.64;0.74;0.16;0.14;10;8087;-1233
17960;0.64;0.74;0.16;0.14;15;8085;-1228
17980;0.64;0.74;0.16;0.14;14;8086;-1228
17997;0.64;0.74;0.16;0.14;14;8084;-1227
18038;0.64;0.74;0.16;0.14;14;8086;-1225
18059;0.64;0.74;0.16;0.14;15;8085;-1224
18077;0.64;0.74;0.16;0.14;9;8087;-1225
18092;0.64;0.74;0.16;0.14;10;8087;-1225
18111;0.64;0.74;0.16;0.14;10;8090;-1230
18129;0.64;0.74;0.16;0.14;11;8090;-1235
18146;0.64;0.74;0.16;0.14;12;8090;-1236
18163;0.64;0.74;0.16;0.14;15;8091;-1233
18180;0.64;0.74;0.16;0.14;17;8093;-1235
18200;0.64;0.74;0.16;0.14;18;8089;-1233
18217;0.64;0.74;0.16;0.14;15;8088;-1228
18234;0.64;0.74;0.16;0.14;14;8085;-1225
18251;0.64;0.74;0.16;0.14;12;8088;-1233
18269;0.64;0.74;0.16;0.14;19;8088;-1227
18290;0.64;0.74;0.16;0.14;23;8087;-1225
18316;0.64;0.74;0.16;0.14;24;8085;-1228
18334;0.64;0.74;0.16;0.14;18;8082;-1220
18352;0.64;0.74;0.16;0.14;17;8082;-1223
18370;0.64;0.74;0.16;0.14;20;8080;-1217
18387;0.64;0.74;0.16;0.14;22;8083;-1219
18405;0.64;0.74;0.16;0.14;22;8084;-1223
18422;0.64;0.74;0.16;0.14;20;8087;-1223
18439;0.64;0.74;0.16;0.14;20;8087;-1227
18457;0.64;0.74;0.16;0.14;19;8085;-1230
18474;0.64;0.74;0.16;0.14;16;8083;-1228
18493;0.64;0.74;0.16;0.14;18;8083;-1227
18514;0.64;0.74;0.16;0.14;17;8082;-1230
18532;0.64;0.74;0.16;0.14;19;8079;-1229
18548;0.64;0.74;0.16;0.14;20;8078;-1226
18565;0.64;0.74;0.16;0.14;21;8079;-1224
18584;0.64;0.74;0.16;0.14;18;8081;-1229
18601;0.64;0.74;0.16;0.14;16;8083;-1232
18618;0.64;0.74;0.16;0.14;18;8080;-1233
18635;0.64;0.74;0.16;0.14;19;8080;-1223
18654;0.64;0.74;0.16;0.14;18;8082;-1231
18672;0.64;0.74;0.16;0.14;13;8080;-1230
18688;0.64;0.74;0.16;0.14;9;8085;-1232
18706;0.64;0.74;0.16;0.14;9;8091;-1235
18724;0.64;0.74;0.16;0.14;7;8089;-1233
18744;0.64;0.74;0.16;0.14;8;8090;-1236
18761;0.64;0.74;0.16;0.14;13;8090;-1232
18779;0.64;0.74;0.16;0.14;14;8090;-1227
18798;0.64;0.74;0.16;0.14;14;8090;-1230
18814;0.64;0.74;0.16;0.14;18;8093;-1241
18831;0.64;0.74;0.16;0.14;20;8093;-1244
18850;0.64;0.74;0.16;0.14;18;8092;-1236
18877;0.64;0.74;0.16;0.14;19;8086;-1241
18893;0.64;0.74;0.16;0.14;14;8087;-1244
18909;0.64;0.74;0.16;0.14;14;8087;-1242
18928;0.64;0.74;0.16;0.14;11;8088;-1244
18946;0.64;0.74;0.16;0.14;9;8087;-1246
18966;0.64;0.74;0.16;0.14;9;8090;-1242
18983;0.64;0.74;0.16;0.14;12;8091;-1242
19002;0.64;0.74;0.16;0.14;13;8089;-1244
19019;0.64;0.74;0.16;0.14;12;8090;-1245
19035;0.64;0.74;0.16;0.14;16;8090;-1242
19053;0.64;0.74;0.16;0.14;20;8089;-1236
19070;0.64;0.74;0.16;0.14;21;8083;-1232
19088;0.64;0.74;0.16;0.14;23;8084;-1236
19105;0.64;0.74;0.16;0.14;24;8082;-1235
19122;0.64;0.74;0.16;0.14;26;8084;-1232
19140;0.64;0.74;0.16;0.14;19;8088;-1228
19157;0.64;0.74;0.16;0.14;19;8087;-1229
19175;0.64;0.74;0.16;0.14;14;8087;-1229
19195;0.64;0.74;0.16;0.14;13;8085;-1231
19212;0.64;0.74;0.16;0.14;14;8085;-1231
20236;0.64;0.74;0.16;0.14;16;8093;-1227
20254;0.64;0.74;0.16;0.14;16;8090;-1230
20269;0.64;0.74;0.16;0.14;13;8090;-1229
20287;0.64;0.74;0.16;0.14;13;8090;-1224
20306;0.64;0.74;0.16;0.14;16;8096;-1228
20324;0.64;0.74;0.16;0.14;19;8093;-1223
20339;0.64;0.74;0.16;0.14;18;8093;-1228
20357;0.64;0.74;0.16;0.14;14;8091;-1229
20376;0.64;0.74;0.16;0.14;15;8091;-1224
20393;0.64;0.74;0.16;0.14;16;8087;-1225
20412;0.64;0.74;0.16;0.14;13;8090;-1226
20431;0.64;0.74;0.16;0.14;16;8090;-1228
20456;0.64;0.74;0.16;0.14;14;8090;-1238
20472;0.64;0.74;0.16;0.14;16;8085;-1237
20488;0.64;0.74;0.16;0.14;16;8088;-1241
20507;0.64;0.74;0.16;0.14;12;8087;-1245
20525;0.64;0.74;0.16;0.14;18;8088;-1246
20543;0.64;0.74;0.16;0.14;16;8089;-1236
20560;0.64;0.74;0.16;0.14;15;8092;-1233
20593;0.64;0.74;0.16;0.14;12;8089;-1232
20610;0.64;0.74;0.16;0.14;17;8091;-1234
20626;0.64;0.74;0.16;0.14;18;8086;-1232
20642;0.64;0.74;0.16;0.14;21;8082;-1236
20666;0.64;0.74;0.16;0.14;18;8084;-1243
20683;0.64;0.74;0.16;0.14;16;8082;-1240
20698;0.64;0.74;0.16;0.14;15;8080;-1236
20717;0.64;0.74;0.16;0.14;16;8084;-1235
20735;0.64;0.74;0.16;0.14;19;8087;-1233
20753;0.64;0.74;0.16;0.14;18;8084;-1230
20768;0.64;0.74;0.16;0.14;17;8086;-1225
20786;0.64;0.74;0.16;0.14;17;8083;-1227
20805;0.64;0.74;0.16;0.14;18;8085;-1226
20823;0.64;0.74;0.16;0.14;21;8088;-1227
20841;0.64;0.74;0.16;0.14;23;8088;-1224
20882;0.64;0.74;0.16;0.14;20;8087;-1227
20968;0.64;0.74;0.16;0.14;12;8089;-1234
20986;0.64;0.74;0.16;0.14;8;8087;-1233
21005;0.64;0.74;0.16;0.14;12;8091;-1246
21025;0.64;0.74;0.16;0.14;7;8093;-1244
21045;0.64;0.74;0.16;0.14;8;8089;-1237
21065;0.64;0.74;0.16;0.14;15;8088;-1232
21084;0.64;0.74;0.16;0.14;17;8089;-1231
21104;0.64;0.74;0.16;0.14;13;8087;-1231
21124;0.64;0.74;0.16;0.14;13;8087;-1234
21144;0.64;0.74;0.16;0.14;16;8088;-1233
21163;0.64;0.74;0.16;0.14;18;8087;-1231
21183;0.64;0.74;0.16;0.14;16;8085;-1231
21202;0.64;0.74;0.16;0.14;17;8087;-1230
21225;0.64;0.74;0.16;0.14;16;8087;-1231
21244;0.64;0.74;0.16;0.14;20;8087;-1226
21266;0.64;0.74;0.16;0.14;18;8085;-1224
21285;0.64;0.74;0.16;0.14;15;8087;-1224
21303;0.64;0.74;0.16;0.14;18;8086;-1232
21323;0.64;0.74;0.16;0.14;18;8087;-1227
21343;0.64;0.74;0.16;0.14;18;8087;-1225
21363;0.64;0.74;0.16;0.14;15;8084;-1223
21381;0.64;0.74;0.16;0.14;15;8090;-1223
21402;0.64;0.74;0.16;0.14;15;8091;-1223
21422;0.64;0.74;0.16;0.14;11;8090;-1224
21442;0.64;0.74;0.16;0.14;13;8089;-1223
21467;0.64;0.74;0.16;0.14;25;8088;-1236
21489;0.64;0.74;0.16;0.14;23;8088;-1230
21509;0.64;0.74;0.16;0.14;21;8090;-1230
21528;0.64;0.74;0.16;0.14;23;8089;-1230
21546;0.64;0.74;0.16;0.14;21;8090;-1229
21568;0.64;0.74;0.16;0.14;16;8093;-1230
21588;0.64;0.74;0.16;0.14;16;8093;-1229
21607;0.64;0.74;0.16;0.14;20;8090;-1231
21625;0.64;0.74;0.16;0.14;22;8092;-1235
21647;0.64;0.74;0.16;0.14;20;8091;-1235
21667;0.64;0.74;0.16;0.14;21;8086;-1231
21685;0.64;0.74;0.16;0.14;21;8088;-1231
21703;0.64;0.74;0.16;0.14;19;8087;-1233
21728;0.64;0.74;0.16;0.14;19;8086;-1226
21748;0.64;0.74;0.16;0.14;21;8083;-1223
21766;0.64;0.74;0.16;0.14;26;8086;-1217
21786;0.64;0.74;0.16;0.14;27;8090;-1227
21807;0.64;0.74;0.16;0.14;26;8090;-1237
21827;0.64;0.74;0.16;0.14;21;8092;-1243
21844;0.64;0.74;0.16;0.14;21;8090;-1239
21865;0.64;0.74;0.16;0.14;20;8092;-1241
21885;0.64;0.74;0.16;0.14;18;8095;-1247
21905;0.64;0.74;0.16;0.14;19;8091;-1243
21923;0.64;0.74;0.16;0.14;19;8093;-1239
21942;0.64;0.74;0.16;0.14;18;8094;-1234
21977;0.64;0.74;0.16;0.14;13;8090;-1247
21997;0.64;0.74;0.16;0.14;13;8087;-1242
22017;0.64;0.74;0.16;0.14;12;8085;-1245
22037;0.64;0.74;0.16;0.14;14;8084;-1240
22056;0.64;0.74;0.16;0.14;16;8082;-1235
22076;0.64;0.74;0.16;0.14;17;8080;-1238
22096;0.64;0.74;0.16;0.14;21;8079;-1239
22116;0.64;0.74;0.16;0.14;21;8082;-1237
22135;0.64;0.74;0.16;0.14;18;8079;-1238
22154;0.64;0.74;0.16;0.14;17;8077;-1235
22175;0.64;0.74;0.16;0.14;18;8076;-1233
22194;0.64;0.74;0.16;0.14;17;8077;-1232
22214;0.64;0.74;0.16;0.14;14;8076;-1231
22237;0.64;0.74;0.16;0.14;10;8079;-1238
22258;0.64;0.74;0.16;0.14;11;8081;-1236
22275;0.64;0.74;0.16;0.14;12;8082;-1238
22296;0.64;0.74;0.16;0.14;13;8081;-1228
22316;0.64;0.74;0.16;0.14;16;8084;-1235
22336;0.64;0.74;0.16;0.14;15;8086;-1241
22354;0.64;0.74;0.16;0.14;16;8085;-1237
22375;0.64;0.74;0.16;0.14;17;8085;-1238
22395;0.64;0.74;0.16;0.14;13;8085;-1240
22415;0.64;0.74;0.16;0.14;10;8090;-1240
22433;0.64;0.74;0.16;0.14;6;8092;-1240
22453;0.64;0.74;0.16;0.14;12;8088;-1235
22487;0.64;0.74;0.16;0.14;14;8077;-1236
22506;0.64;0.74;0.16;0.14;16;8077;-1232
22524;0.64;0.74;0.16;0.14;12;8080;-1229
22546;0.64;0.74;0.16;0.14;16;8082;-1236
22566;0.64;0.74;0.16;0.14;13;8085;-1241
22584;0.64;0.74;0.16;0.14;13;8085;-1238
22603;0.64;0.74;0.16;0.14;15;8084;-1239
22624;0.64;0.74;0.16;0.14;21;8082;-1231
22645;0.64;0.74;0.16;0.14;24;8081;-1231
22663;0.64;0.74;0.16;0.14;24;8081;-1229
22682;0.64;0.74;0.16;0.14;25;8083;-1226
22703;0.64;0.74;0.16;0.14;21;8084;-1220
22724;0.64;0.74;0.16;0.14;17;8087;-1226
22745;0.64;0.74;0.16;0.14;13;8088;-1227
22765;0.64;0.74;0.16;0.14;11;8086;-1225
22786;0.64;0.74;0.16;0.14;10;8089;-1228
22807;0.64;0.74;0.16;0.14;11;8089;-1228
22826;0.64;0.74;0.16;0.14;13;8088;-1233
22880;0.64;0.74;0.16;0.14;10;8084;-1242
22900;0.64;0.74;0.16;0.14;14;8082;-1243
22919;0.64;0.74;0.16;0.14;15;8084;-1231
22947;0.64;0.74;0.16;0.14;17;8087;-1234
22966;0.64;0.74;0.16;0.14;20;8084;-1236
22999;0.64;0.74;0.16;0.14;18;8084;-1231
23020;0.64;0.74;0.16;0.14;16;8087;-1229
23042;0.64;0.74;0.16;0.14;17;8084;-1220
23060;0.64;0.74;0.16;0.14;17;8089;-1215
23081;0.64;0.74;0.16;0.14;19;8092;-1215
23102;0.64;0.74;0.16;0.14;19;8094;-1215
23120;0.64;0.74;0.16;0.14;20;8091;-1211
23138;0.64;0.74;0.16;0.14;19;8090;-1215
23160;0.64;0.74;0.16;0.14;19;8090;-1213
23180;0.64;0.74;0.16;0.14;21;8090;-1228
23199;0.64;0.74;0.16;0.14;27;8088;-1227
23217;0.64;0.74;0.16;0.14;29;8090;-1229
23239;0.64;0.74;0.16;0.14;31;8092;-1230
23259;0.64;0.74;0.16;0.14;28;8096;-1231
23278;0.64;0.74;0.16;0.14;25;8094;-1229
23300;0.64;0.74;0.16;0.14;25;8092;-1228
23322;0.64;0.74;0.16;0.14;23;8093;-1220
23341;0.64;0.74;0.16;0.14;21;8087;-1216
23360;0.64;0.74;0.16;0.14;21;8085;-1217
23380;0.64;0.74;0.16;0.14;18;8087;-1220
23401;0.64;0.74;0.16;0.14;19;8088;-1232
23426;0.64;0.74;0.16;0.14;23;8086;-1227
24446;0.64;0.74;0.16;0.14;7;8089;-1228
24466;0.64;0.74;0.16;0.14;9;8085;-1228
24487;0.64;0.74;0.16;0.14;9;8085;-1222
24507;0.64;0.74;0.16;0.14;13;8083;-1218
24525;0.64;0.74;0.16;0.14;9;8086;-1223
24549;0.64;0.74;0.16;0.14;8;8088;-1226
24569;0.64;0.74;0.16;0.14;8;8087;-1227
24588;0.64;0.74;0.16;0.14;11;8089;-1230
24608;0.64;0.74;0.16;0.14;11;8089;-1232
24627;0.64;0.74;0.16;0.14;3;8092;-1232
24647;0.64;0.74;0.16;0.14;-3;8087;-1234
24667;0.64;0.74;0.16;0.14;-2;8087;-1232
24687;0.64;0.74;0.16;0.14;4;8089;-1227
24706;0.64;0.74;0.16;0.14;11;8089;-1226
24726;0.64;0.74;0.16;0.14;19;8086;-1227
24745;0.64;0.74;0.16;0.14;20;8085;-1228
24766;0.64;0.74;0.16;0.14;23;8087;-1227
24785;0.64;0.74;0.16;0.14;27;8088;-1226
24808;0.64;0.74;0.16;0.14;26;8086;-1224
24829;0.64;0.74;0.16;0.14;21;8085;-1220
24849;0.64;0.74;0.16;0.14;18;8084;-1223
24866;0.64;0.74;0.16;0.14;15;8084;-1219
24886;0.64;0.74;0.16;0.14;14;8085;-1221
24907;0.64;0.74;0.16;0.14;14;8086;-1222
24936;0.64;0.74;0.16;0.14;14;8088;-1229
24954;0.64;0.74;0.16;0.14;15;8086;-1228
24975;0.64;0.74;0.16;0.14;20;8089;-1229
24995;0.64;0.74;0.16;0.14;23;8087;-1222
25014;0.64;0.74;0.16;0.14;26;8087;-1228
25033;0.64;0.74;0.16;0.14;25;8087;-1225
25052;0.64;0.74;0.16;0.14;25;8085;-1227
25072;0.64;0.74;0.16;0.14;27;8089;-1230
25091;0.64;0.74;0.16;0.14;26;8089;-1226
25110;0.64;0.74;0.16;0.14;29;8090;-1224
25129;0.64;0.74;0.16;0.14;27;8091;-1224
25150;0.64;0.74;0.16;0.14;24;8089;-1222
25168;0.64;0.74;0.16;0.14;17;8089;-1218
25186;0.64;0.74;0.16;0.14;18;8088;-1221
25208;0.64;0.74;0.16;0.14;21;8089;-1227
25228;0.64;0.74;0.16;0.14;20;8089;-1225
25247;0.64;0.74;0.16;0.14;12;8088;-1223
25265;0.64;0.74;0.16;0.14;16;8088;-1221
25286;0.64;0.74;0.16;0.14;17;8086;-1224
25309;0.64;0.74;0.16;0.14;18;8087;-1231
25328;0.64;0.74;0.16;0.14;24;8086;-1227
25347;0.64;0.74;0.16;0.14;23;8088;-1224
25369;0.64;0.74;0.16;0.14;17;8084;-1227
25388;0.64;0.74;0.16;0.14;19;8083;-1228
25406;0.64;0.74;0.16;0.14;18;8084;-1223
25436;0.64;0.74;0.16;0.14;10;8088;-1218
25457;0.64;0.74;0.16;0.14;12;8087;-1220
25476;0.64;0.74;0.16;0.14;15;8087;-1220
25495;0.64;0.74;0.16;0.14;17;8085;-1224
25514;0.64;0.74;0.16;0.14;15;8083;-1231
25535;0.64;0.74;0.16;0.14;13;8080;-1230
25557;0.64;0.74;0.16;0.14;11;8085;-1231
25577;0.64;0.74;0.16;0.14;15;8084;-1234
25596;0.64;0.74;0.16;0.14;18;8082;-1231
25617;0.64;0.74;0.16;0.14;22;8082;-1227
25636;0.64;0.74;0.16;0.14;20;8082;-1221
25655;0.64;0.74;0.16;0.14;17;8079;-1217
25675;0.64;0.74;0.16;0.14;17;8075;-1217
25696;0.64;0.74;0.16;0.14;15;8076;-1225
25717;0.64;0.74;0.16;0.14;17;8078;-1228
25772;0.64;0.74;0.16;0.14;18;8083;-1229
25790;0.64;0.74;0.16;0.14;15;8080;-1226
25810;0.64;0.74;0.16;0.14;14;8081;-1225
25830;0.64;0.74;0.16;0.14;10;8078;-1230
25853;0.64;0.74;0.16;0.14;13;8084;-1228
25872;0.64;0.74;0.16;0.14;17;8090;-1228
25896;0.64;0.74;0.16;0.14;16;8086;-1246
25917;0.64;0.74;0.16;0.14;15;8085;-1242
25936;0.64;0.74;0.16;0.14;11;8086;-1244
25954;0.64;0.74;0.16;0.14;11;8089;-1246
25974;0.64;0.74;0.16;0.14;10;8090;-1243
25995;0.64;0.74;0.16;0.14;11;8088;-1235
26015;0.64;0.74;0.16;0.14;13;8092;-1231
26033;0.64;0.74;0.16;0.14;12;8095;-1235
26053;0.64;0.74;0.16;0.14;16;8092;-1238
26074;0.64;0.74;0.16;0.14;18;8089;-1240
26096;0.64;0.74;0.16;0.14;20;8090;-1232
26114;0.64;0.74;0.16;0.14;17;8087;-1232
26136;0.64;0.74;0.16;0.14;16;8082;-1225
26156;0.64;0.74;0.16;0.14;16;8084;-1226
26175;0.64;0.74;0.16;0.14;19;8085;-1226
26193;0.64;0.74;0.16;0.14;19;8083;-1228
26215;0.64;0.74;0.16;0.14;19;8085;-1233
26235;0.64;0.74;0.16;0.14;20;8084;-1231
26253;0.64;0.74;0.16;0.14;17;8082;-1230
26272;0.64;0.74;0.16;0.14;20;8084;-1233
26292;0.64;0.74;0.16;0.14;15;8086;-1225
26314;0.64;0.74;0.16;0.14;14;8087;-1227
26333;0.64;0.74;0.16;0.14;16;8084;-1226
26357;0.64;0.74;0.16;0.14;14;8089;-1230
26396;0.64;0.74;0.16;0.14;15;8093;-1238
26413;0.64;0.74;0.16;0.14;16;8094;-1240
26432;0.64;0.74;0.16;0.14;14;8093;-1236
26452;0.64;0.74;0.16;0.14;15;8092;-1240
26473;0.64;0.74;0.16;0.14;11;8090;-1242
26492;0.64;0.74;0.16;0.14;12;8090;-1245
26511;0.64;0.74;0.16;0.14;17;8093;-1237
26530;0.64;0.74;0.16;0.14;18;8097;-1233
26551;0.64;0.74;0.16;0.14;17;8092;-1233
26571;0.64;0.74;0.16;0.14;16;8091;-1240
26589;0.64;0.74;0.16;0.14;19;8088;-1241
26613;0.64;0.74;0.16;0.14;20;8088;-1235
26632;0.64;0.74;0.16;0.14;19;8087;-1239
26652;0.64;0.74;0.16;0.14;17;8089;-1235
26671;0.64;0.74;0.16;0.14;17;8090;-1229
26691;0.64;0.74;0.16;0.14;20;8087;-1222
26711;0.64;0.74;0.16;0.14;18;8088;-1224
26731;0.64;0.74;0.16;0.14;21;8086;-1228
26750;0.64;0.74;0.16;0.14;21;8089;-1229
26770;0.64;0.74;0.16;0.14;18;8091;-1234
26790;0.64;0.74;0.16;0.14;19;8090;-1234
26808;0.64;0.74;0.16;0.14;19;8089;-1234
26829;0.64;0.74;0.16;0.14;21;8089;-1234
26848;0.64;0.74;0.16;0.14;18;8084;-1237
26871;0.64;0.74;0.16;0.14;17;8085;-1234
26896;0.64;0.74;0.16;0.14;21;8088;-1225
26915;0.64;0.74;0.16;0.14;20;8088;-1225
26932;0.64;0.74;0.16;0.14;20;8089;-1228
26953;0.64;0.74;0.16;0.14;21;8089;-1233
26973;0.64;0.74;0.16;0.14;26;8088;-1235
26993;0.64;0.74;0.16;0.14;22;8088;-1235
27011;0.64;0.74;0.16;0.14;19;8086;-1229
27031;0.64;0.74;0.16;0.14;16;8090;-1231
27052;0.64;0.74;0.16;0.14;21;8091;-1231
27072;0.64;0.74;0.16;0.14;25;8088;-1231
27090;0.64;0.74;0.16;0.14;26;8092;-1232
27114;0.64;0.74;0.16;0.14;21;8089;-1237
27134;0.64;0.74;0.16;0.14;19;8087;-1233
27153;0.64;0.74;0.16;0.14;16;8087;-1237
27171;0.64;0.74;0.16;0.14;17;8090;-1235
27192;0.64;0.74;0.16;0.14;17;8091;-1237
27213;0.64;0.74;0.16;0.14;18;8090;-1236
27231;0.64;0.74;0.16;0.14;17;8090;-1238
27250;0.64;0.74;0.16;0.14;21;8089;-1234
27271;0.64;0.74;0.16;0.14;23;8092;-1235
27292;0.64;0.74;0.16;0.14;19;8093;-1230
27310;0.64;0.74;0.16;0.14;16;8086;-1229
27329;0.64;0.74;0.16;0.14;19;8085;-1229
27350;0.64;0.74;0.16;0.14;15;8085;-1232
27374;0.64;0.16;0.21;-1.67;22026;1289;511
27395;0.64;0.74;0.16;0.14;20;8083;-1239
27415;0.64;0.74;0.16;0.14;20;8079;-1233
27436;0.64;0.74;0.16;0.14;22;8080;-1234
27456;0.64;0.74;0.16;0.14;24;8086;-1236
27474;0.64;0.74;0.16;0.14;24;8083;-1236
27494;0.64;0.74;0.16;0.14;27;8081;-1234
27515;0.64;0.74;0.16;0.14;25;8082;-1235
27536;0.64;0.74;0.16;0.14;24;8085;-1229
27555;0.64;0.74;0.16;0.14;22;8082;-1226
27610;0.64;0.74;0.16;0.14;17;8085;-1226
27630;0.64;0.74;0.16;0.14;23;8083;-1222
28655;0.64;0.74;0.16;0.14;19;8089;-1229
28674;0.64;0.74;0.16;0.14;21;8088;-1229
28694;0.64;0.74;0.16;0.14;22;8085;-1232
28714;0.64;0.74;0.16;0.14;22;8086;-1234
28734;0.64;0.74;0.16;0.14;20;8088;-1235
28753;0.64;0.74;0.16;0.14;17;8085;-1231
28773;0.64;0.74;0.16;0.14;19;8086;-1234
28793;0.64;0.74;0.16;0.14;18;8084;-1232
28812;0.64;0.74;0.16;0.14;21;8085;-1237
28832;0.64;0.74;0.16;0.14;23;8086;-1232
28851;0.64;0.74;0.16;0.14;23;8084;-1235
28874;0.64;0.74;0.16;0.14;10;8084;-1228
28893;0.64;0.74;0.16;0.14;16;8080;-1225
28918;0.64;0.74;0.16;0.14;17;8082;-1227
28936;0.64;0.74;0.16;0.14;15;8086;-1219
28956;0.64;0.74;0.16;0.14;14;8083;-1220
28977;0.64;0.74;0.16;0.14;12;8086;-1222
28997;0.64;0.74;0.16;0.14;9;8087;-1224
29015;0.64;0.74;0.16;0.14;12;8088;-1220
29035;0.64;0.74;0.16;0.14;15;8087;-1216
29056;0.64;0.74;0.16;0.14;11;8084;-1207
29076;0.64;0.74;0.16;0.14;13;8087;-1206
29094;0.64;0.74;0.16;0.14;10;8084;-1211
29114;0.64;0.74;0.16;0.14;9;8080;-1214
29134;0.64;0.74;0.16;0.14;10;8079;-1219
29157;0.64;0.74;0.16;0.14;19;8079;-1217
29175;0.64;0.74;0.16;0.14;17;8081;-1219
29196;0.64;0.74;0.16;0.14;17;8080;-1223
29217;0.64;0.74;0.16;0.14;13;8081;-1225
29235;0.64;0.74;0.16;0.14;12;8087;-1229
29254;0.64;0.74;0.16;0.14;10;8084;-1230
29275;0.64;0.74;0.16;0.14;16;8088;-1230
29296;0.64;0.74;0.16;0.14;21;8091;-1231
29314;0.64;0.74;0.16;0.14;22;8093;-1230
29333;0.64;0.74;0.16;0.14;13;8091;-1226
29364;0.64;0.74;0.16;0.14;16;8089;-1222
29385;0.64;0.74;0.16;0.14;16;8088;-1221
29403;0.64;0.74;0.16;0.14;14;8085;-1214
29426;0.64;0.74;0.16;0.14;14;8089;-1222
29447;0.64;0.74;0.16;0.14;12;8092;-1227
29467;0.64;0.74;0.16;0.14;13;8092;-1230
29485;0.64;0.74;0.16;0.14;19;8087;-1229
29506;0.64;0.74;0.16;0.14;21;8086;-1231
29526;0.64;0.74;0.16;0.14;22;8089;-1235
29546;0.64;0.74;0.16;0.14;23;8092;-1233
29564;0.64;0.74;0.16;0.14;23;8094;-1236
29585;0.64;0.74;0.16;0.14;20;8093;-1236
29605;0.64;0.74;0.16;0.14;17;8087;-1236
29624;0.64;0.74;0.16;0.14;12;8089;-1237
29643;0.64;0.74;0.16;0.14;12;8085;-1233
29666;0.64;0.74;0.16;0.14;19;8086;-1229
29687;0.64;0.74;0.16;0.14;26;8087;-1232
29706;0.64;0.74;0.16;0.14;27;8093;-1233
29728;0.64;0.74;0.16;0.14;27;8092;-1227
29748;0.64;0.74;0.16;0.14;27;8095;-1221
29781;0.64;0.74;0.16;0.14;23;8095;-1225
29800;0.64;0.74;0.16;0.14;21;8091;-1225
29819;0.64;0.74;0.16;0.14;20;8090;-1224
29844;0.64;0.74;0.16;0.14;13;8085;-1224
29864;0.64;0.74;0.16;0.14;16;8088;-1222
29884;0.64;0.74;0.16;0.14;16;8088;-1221
29903;0.64;0.74;0.16;0.14;18;8088;-1214
29922;0.64;0.74;0.16;0.14;20;8092;-1222
29945;0.64;0.74;0.16;0.14;22;8089;-1221
29967;0.64;0.74;0.16;0.14;19;8091;-1224
29986;0.64;0.74;0.16;0.14;21;8091;-1226
30004;0.64;0.74;0.16;0.14;18;8091;-1227
30024;0.64;0.74;0.16;0.14;19;8089;-1232
30044;0.64;0.74;0.16;0.14;16;8089;-1237
30065;0.64;0.74;0.16;0.14;19;8085;-1240
30082;0.64;0.74;0.16;0.14;24;8086;-1238
30103;0.64;0.74;0.16;0.14;26;8083;-1242
30123;0.64;0.74;0.16;0.14;27;8076;-1244
30143;0.64;0.74;0.16;0.14;24;8080;-1245
30161;0.64;0.74;0.16;0.14;18;8081;-1233
30186;0.64;0.74;0.16;0.14;21;8080;-1232
30206;0.64;0.74;0.16;0.14;24;8085;-1235
30225;0.64;0.74;0.16;0.14;22;8086;-1232
30242;0.64;0.74;0.16;0.14;20;8085;-1227
30263;0.64;0.74;0.16;0.14;17;8086;-1232
30283;0.64;0.74;0.16;0.14;14;8086;-1235
30301;0.64;0.74;0.16;0.14;13;8087;-1240
30321;0.64;0.74;0.16;0.14;16;8086;-1237
30343;0.64;0.74;0.16;0.14;20;8085;-1216
30365;0.64;0.74;0.16;0.14;21;8085;-1217
30384;0.64;0.74;0.16;0.14;21;8085;-1222
30442;0.64;0.74;0.16;0.14;24;8082;-1222
30461;0.64;0.74;0.16;0.14;19;8083;-1224
30483;0.64;0.74;0.16;0.14;17;8084;-1227
30503;0.64;0.74;0.16;0.14;17;8085;-1229
30523;0.64;0.74;0.16;0.14;16;8089;-1226
30542;0.64;0.74;0.16;0.14;21;8091;-1230
30561;0.64;0.74;0.16;0.14;20;8092;-1233
30581;0.64;0.74;0.16;0.14;15;8092;-1228
30600;0.64;0.74;0.16;0.14;11;8093;-1229
30621;0.64;0.74;0.16;0.14;10;8096;-1230
30640;0.64;0.74;0.16;0.14;15;8097;-1233
30660;0.64;0.74;0.16;0.14;15;8099;-1233
30679;0.64;0.74;0.16;0.14;18;8093;-1232
30699;0.64;0.74;0.16;0.14;18;8089;-1232
30722;0.64;0.74;0.16;0.14;20;8089;-1232
30742;0.64;0.74;0.16;0.14;21;8090;-1234
30760;0.64;0.74;0.16;0.14;18;8089;-1229
30780;0.64;0.74;0.16;0.14;15;8092;-1226
30803;0.64;0.74;0.16;0.14;17;8088;-1236
30823;0.64;0.74;0.16;0.14;14;8089;-1234
30841;0.64;0.74;0.16;0.14;15;8084;-1239
30861;0.64;0.74;0.16;0.14;14;8084;-1242
30882;0.64;0.74;0.16;0.14;13;8078;-1243
30901;0.64;0.74;0.16;0.14;18;8075;-1243
30920;0.64;0.74;0.16;0.14;19;8074;-1234
30939;0.64;0.74;0.16;0.14;15;8078;-1237
30960;0.64;0.74;0.16;0.14;16;8083;-1236
30982;0.64;0.74;0.16;0.14;13;8087;-1233
31001;0.64;0.74;0.16;0.14;11;8088;-1233
31022;0.64;0.74;0.16;0.14;11;8089;-1234
31043;0.64;0.74;0.16;0.14;13;8088;-1231
31061;0.64;0.74;0.16;0.14;14;8089;-1227
31080;0.64;0.74;0.16;0.14;16;8091;-1231
31100;0.64;0.74;0.16;0.14;17;8092;-1229
31121;0.64;0.74;0.16;0.14;20;8089;-1227
31139;0.64;0.74;0.16;0.14;20;8089;-1231
31157;0.64;0.74;0.16;0.14;18;8090;-1228
31179;0.64;0.74;0.16;0.14;20;8091;-1222
31199;0.64;0.74;0.16;0.14;24;8091;-1228
31221;0.64;0.74;0.16;0.14;25;8093;-1237
31240;0.64;0.74;0.16;0.14;23;8095;-1245
31261;0.64;0.74;0.16;0.14;19;8096;-1247
31280;0.64;0.74;0.16;0.14;21;8095;-1241
31303;0.64;0.74;0.16;0.14;26;8089;-1226
31322;0.64;0.74;0.16;0.14;24;8090;-1223
31344;0.64;0.74;0.16;0.14;25;8089;-1231
31363;0.64;0.74;0.16;0.14;23;8089;-1229
31382;0.64;0.74;0.16;0.14;22;8087;-1224
31401;0.64;0.74;0.16;0.14;17;8087;-1230
31422;0.64;0.74;0.16;0.14;13;8084;-1230
31441;0.64;0.74;0.16;0.14;13;8084;-1233
31460;0.64;0.74;0.16;0.14;15;8088;-1229
31483;0.64;0.74;0.16;0.14;20;8089;-1229
31504;0.64;0.74;0.16;0.14;17;8091;-1235
31523;0.64;0.74;0.16;0.14;16;8091;-1234
31542;0.64;0.74;0.16;0.14;16;8088;-1234
31562;0.64;0.74;0.16;0.14;14;8090;-1231
31581;0.64;0.74;0.16;0.14;15;8087;-1226
31601;0.64;0.74;0.16;0.14;18;8088;-1223
31621;0.64;0.74;0.16;0.14;20;8092;-1224
31641;0.64;0.74;0.16;0.14;26;8089;-1227
31660;0.64;0.74;0.16;0.14;26;8089;-1233
31680;0.64;0.74;0.16;0.14;23;8092;-1237
31699;0.64;0.74;0.16;0.14;25;8086;-1243
31722;0.64;0.74;0.16;0.14;26;8085;-1244
31741;0.64;0.74;0.16;0.14;21;8086;-1238
31762;0.64;0.74;0.16;0.14;22;8087;-1228
31781;0.64;0.74;0.16;0.14;11965;27176;-27089
31804;0.64;0.74;0.16;0.14;18;8083;-1233
32833;0.64;0.74;0.16;0.14;17;8090;-1226
32853;0.64;0.74;0.16;0.14;14;8091;-1231
32873;0.64;0.74;0.16;0.14;12;8093;-1239
32891;0.64;0.74;0.16;0.14;8;8091;-1248
32911;0.64;0.74;0.16;0.14;9;8090;-1239
32932;0.64;0.74;0.16;0.14;14;8087;-1227
32951;0.64;0.74;0.16;0.14;16;8085;-1224
32969;0.64;0.74;0.16;0.14;11;8087;-1232
32993;0.64;0.74;0.16;0.14;10;8087;-1237
33014;0.64;0.74;0.16;0.14;15;8085;-1236
33032;0.64;0.74;0.16;0.14;16;8083;-1224
33051;0.64;0.74;0.16;0.14;14;8085;-1221
33071;0.64;0.74;0.16;0.14;16;8085;-1232
33092;0.64;0.74;0.16;0.14;18;8090;-1234
33111;0.64;0.74;0.16;0.14;19;8086;-1229
33131;0.64;0.74;0.16;0.14;19;8084;-1230
33165;0.64;0.74;0.16;0.14;20;8083;-1234
33185;0.64;0.74;0.16;0.14;20;8083;-1228
33204;0.64;0.74;0.16;0.14;16;8085;-1233
33224;0.64;0.74;0.16;0.14;14;8088;-1229
33292;0.64;0.74;0.16;0.14;21;8091;-1236
33312;0.64;0.74;0.16;0.14;13;8092;-1248
33330;0.64;0.74;0.16;0.14;16;8093;-1248
33350;0.64;0.74;0.16;0.14;15;8094;-1251
33371;0.64;0.74;0.16;0.14;18;8088;-1247
33391;0.64;0.74;0.16;0.14;17;8086;-1245
33409;0.64;0.74;0.16;0.14;16;8088;-1241
33429;0.64;0.74;0.16;0.14;19;8086;-1228
33449;0.64;0.74;0.16;0.14;22;8086;-1227
33469;0.64;0.74;0.16;0.14;24;8082;-1222
33487;0.64;0.74;0.16;0.14;24;8085;-1215
33508;0.64;0.74;0.16;0.14;20;8085;-1230
33528;0.64;0.74;0.16;0.14;20;8087;-1227
33551;0.64;0.74;0.16;0.14;19;8089;-1231
33570;0.64;0.74;0.16;0.14;17;8091;-1232
33589;0.64;0.74;0.16;0.14;21;8089;-1226
33610;0.64;0.74;0.16;0.14;23;8083;-1225
33629;0.64;0.74;0.16;0.14;22;8087;-1233
33649;0.64;0.74;0.16;0.14;22;8089;-1243
33668;0.64;0.74;0.16;0.14;20;8092;-1240
33689;0.64;0.74;0.16;0.14;15;8091;-1242
33708;0.64;0.74;0.16;0.14;19;8088;-1230
33728;0.64;0.74;0.16;0.14;24;8086;-1211
33747;0.64;0.74;0.16;0.14;28;8088;-1213
